Time (s),Gyroscope X (deg/s),Gyroscope Y (deg/s),Gyroscope Z (deg/s),Accelerometer X (g),Accelerometer Y (g),Accelerometer Z (g),Magnetometer X (uT),Magnetometer Y (uT),Magnetometer Z (uT),Barometer (hPa)
0.000000000,0.002865978,-0.0285269,0.1232656,0.02036601,-0.09452846,0.9924427,-23.4264,22.81287,-7.51624,882.2903
0.020012379,-0.05858789,-0.0285109,-0.0596004,0.02183408,-0.0886976,0.986698,-23.43183,23.17866,-7.142114,882.2919
0.040025234,0.06447185,0.03052725,0.1233545,0.02036954,-0.09598885,0.9904981,-23.43183,23.17866,-7.142114,882.2919
0.060038090,0.002863327,-0.02846024,0.001480713,0.02525658,-0.09207837,0.9881296,-23.43183,23.17866,-7.142114,882.2919
0.080050945,0.002894834,-0.02849989,0.00161095,0.02280392,-0.0877125,0.9925064,-23.43876,23.91303,-7.140201,882.2919
0.100063324,0.002752349,-0.02846532,-0.0592709,0.02427539,-0.09110855,0.9905503,-23.43876,23.91303,-7.140201,882.2919
0.120076656,-0.05879791,0.08968761,-0.05917947,0.02280769,-0.09208566,0.9924703,-23.80948,23.54915,-6.273712,882.2919
0.140089035,0.002776965,-0.02850768,-0.05912656,0.02378478,-0.09159444,0.9924772,-23.80948,23.54915,-6.273712,882.2936
0.160101414,0.0644292,-0.1466102,-0.05903554,0.02378846,-0.09256958,0.9900536,-23.80948,23.54915,-6.273712,882.2936
0.180114746,0.06444144,0.08964272,-0.05894471,0.0203649,-0.0925855,0.9919755,-23.43529,23.54585,-7.141157,882.2969
0.200127125,-0.1201955,0.03045114,-0.1199996,0.02231589,-0.08723057,0.9915427,-23.43529,23.54585,-7.141157,882.2969
0.220140457,0.003076671,-0.02853632,0.001884932,0.02182593,-0.09111517,0.995374,-23.06915,23.90647,-7.136918,882.2969
0.240152836,0.00293369,0.03053891,0.002071537,0.0247611,-0.08624814,0.9896258,-23.06915,23.90647,-7.136918,882.2969
0.260165691,0.003061591,0.03051785,-0.1809877,0.02524778,-0.09109726,0.9949013,-23.43529,23.54585,-7.141157,882.2969
0.280178070,0.002841344,0.03053388,-0.119866,0.02476035,-0.08867436,0.9920211,-23.43529,23.54585,-7.141157,882.2969
0.300190926,0.0643388,-0.08755007,0.1851103,0.02231912,-0.08966143,0.9905564,-23.43529,23.54585,-7.141157,882.2952
0.320203781,-0.305005,0.03067683,0.06319632,0.02085024,-0.09257886,0.9948758,-23.43876,23.91303,-7.140201,882.2952
0.340216160,0.002839411,0.2669479,0.1241067,0.02377662,-0.08673072,0.9958993,-23.43876,23.91303,-7.140201,882.2934
0.360229492,0.06443344,0.2077375,0.06308953,0.02574033,-0.09352614,0.9934334,-23.80294,23.5538,-7.51761,882.2934
0.380241871,0.06444554,0.2075495,0.06304599,0.0257363,-0.08818182,0.9929944,-23.80294,23.5538,-7.51761,882.2934
0.400255203,0.1875441,-0.02885629,0.002029151,0.0257407,-0.08867238,0.9896086,-23.80294,23.5538,-7.51761,882.2934
0.420267582,0.002675531,-0.0880284,0.1238943,0.02133147,-0.08382987,0.9949497,-23.81183,24.28677,-7.142527,882.2934
0.440279961,0.002784679,-0.147015,-0.05897324,0.02769581,-0.09205979,0.992002,-23.81183,24.28677,-7.142527,882.2934
0.460293293,0.002661776,-0.146887,0.1239036,0.02134517,-0.08918548,0.9871756,-22.69261,23.16555,-7.135548,882.2967
0.480305672,0.06427561,-0.02877057,0.001913587,0.02231388,-0.08819907,0.9939502,-22.69261,23.16555,-7.135548,882.2967
0.500318527,0.002783578,0.2665793,0.001966149,0.02183473,-0.09209628,0.9886023,-22.69261,23.16555,-7.135548,882.2967
0.520330906,0.002911771,-0.02875587,-0.05899292,0.02379002,-0.09305683,0.9890833,-23.42987,23.18006,-7.515283,882.2984
0.540344238,0.002904335,0.08930503,-0.05905529,0.02574354,-0.0886757,0.987193,-23.42987,23.18006,-7.515283,882.2984
0.560356617,-0.05866544,-0.265052,0.06288663,0.02182543,-0.08723123,0.9929906,-23.81066,23.91796,-6.708119,882.2984
0.580368996,-0.1200614,0.0302607,-0.12,0.0218298,-0.08966342,0.991038,-23.81066,23.91796,-6.708119,882.2984
0.600382328,0.06461866,-0.02878178,0.123946,0.02427614,-0.08868233,0.9881548,-23.81066,23.91796,-6.708119,882.2967
0.620394707,0.1262703,-0.02880222,0.1238452,0.02378242,-0.08819376,0.9920222,-23.43183,23.17866,-7.142114,882.2967
0.640408039,-0.05852187,-0.08790036,0.06280962,0.02232716,-0.09306878,0.9861802,-23.43183,23.17866,-7.142114,882.295
0.660420418,0.064557,-0.02889855,-0.0592757,0.02134283,-0.0930661,0.9919745,-23.42837,22.81148,-7.143071,882.295
0.680433273,0.06439494,0.1480921,0.1236784,0.0237844,-0.0891669,0.991048,-23.42837,22.81148,-7.143071,882.2983
0.700446129,-0.05879527,-0.02899394,0.06271975,0.0237817,-0.08867834,0.9929844,-23.42837,22.81148,-7.143071,882.2983
0.720458507,0.002876259,-0.02892118,0.001780286,0.02280506,-0.08771384,0.9915401,-24.17255,23.56035,-7.520893,882.2964
0.740471363,-0.1818959,0.0893441,0.1235503,0.02280725,-0.08431845,0.9872202,-24.17255,23.56035,-7.520893,882.2964
0.760483742,-0.05870053,0.08932368,-0.05935472,0.01889567,-0.09113374,0.9934326,-23.06222,23.17211,-7.138831,882.2964
0.780497074,0.06447548,0.03015138,0.001633719,0.02574542,-0.09547376,0.9905185,-23.06222,23.17211,-7.138831,882.2964
0.800509453,0.00296347,-0.08802424,0.001610501,0.02084666,-0.08577882,0.9929996,-23.06222,23.17211,-7.138831,882.2947
0.820522785,0.002936678,0.03000003,0.001606511,0.02133568,-0.08674731,0.9934763,-22.68719,22.79976,-7.509674,882.2947
0.840535164,0.002948595,-0.0880269,0.001736419,0.02231328,-0.09014004,0.9958667,-22.68719,22.79976,-7.509674,882.2997
0.860547543,-0.1202226,0.1483753,0.06260989,0.02476278,-0.08819178,0.9896097,-23.42837,22.81148,-7.143071,882.2997
0.880560875,0.002953213,-0.1471079,-0.05937919,0.02427728,-0.08868366,0.9871885,-23.42837,22.81148,-7.143071,882.2914
0.900573254,0.06458572,0.08923876,0.001494529,0.02280389,-0.08965413,0.9939396,-23.42837,22.81148,-7.143071,882.2914
0.920586109,0.002957543,-0.02886281,0.1233418,0.0233067,-0.09937628,0.9890295,-23.80144,23.18522,-7.145397,882.2849
0.940598965,0.00287284,-0.02884603,-0.05962005,0.02622652,-0.0944913,0.9963254,-23.80144,23.18522,-7.145397,882.2849
0.960611820,-0.1202789,0.1482557,-0.1205968,0.0198698,-0.08918281,0.9949009,-23.44026,24.28161,-7.512414,882.2831
0.980624199,0.06455626,0.03006168,-0.1814779,0.0208513,-0.08918216,0.9915221,-23.44026,24.28161,-7.512414,882.2831
1.000637531,-0.05857635,-0.08798391,0.001323767,0.01938632,-0.0887062,0.9900724,-23.44026,24.28161,-7.512414,882.2881
1.020649910,-0.05858386,0.1482885,-0.05965284,0.02769273,-0.08914369,0.9925093,-23.07261,24.27366,-7.135961,882.2881
1.040662289,0.1261349,0.03005733,0.001164135,0.02329169,-0.08722327,0.992995,-23.07261,24.27366,-7.135961,882.2881
1.060675621,-0.05863756,0.03005596,0.001256887,0.02134331,-0.08966874,0.989104,-24.16909,23.19317,-7.52185,882.2881
1.080688000,-0.05858696,0.08898409,-0.05971957,0.02329549,-0.0896548,0.9915255,-24.16909,23.19317,-7.52185,882.2864
1.100701332,0.00308405,0.02983128,-0.05966531,0.02183468,-0.08675662,0.9847816,-24.16909,23.19317,-7.52185,882.2864
1.120713711,0.1261628,-0.02921012,0.001381282,0.02280533,-0.08868498,0.9920152,-23.06915,23.90647,-7.136918,882.2897
1.140726566,0.003088029,-0.08832587,0.001358619,0.02035704,-0.08675128,0.9944394,-23.06915,23.90647,-7.136918,882.2897
1.160738945,-0.05848219,0.02988454,0.1231488,0.02573726,-0.09061003,0.9939405,-23.05876,22.80492,-7.139788,882.288
1.180751801,-0.05847066,-0.02936092,0.0620768,0.01987507,-0.08870355,0.9900739,-23.05876,22.80492,-7.139788,882.288
1.200764656,0.06455007,0.2068384,0.06207396,0.02183416,-0.09209562,0.9890854,-23.80837,23.91959,-7.143484,882.2863
1.220777035,0.06452334,0.0297347,0.001193469,0.01889962,-0.09308004,0.991484,-23.80837,23.91959,-7.143484,882.2863
1.240790367,0.1876798,0.1478526,0.001056483,0.02573896,-0.09061202,0.9924912,-23.80837,23.91959,-7.143484,882.2844
1.260802746,0.002984645,-0.02928848,0.1230006,0.02769341,-0.09060075,0.9929802,-23.06026,23.1735,-7.512,882.2844
1.280816078,0.2486089,-0.02923351,-0.1207808,0.01985893,-0.07654922,0.9950055,-23.06026,23.1735,-7.512,882.2844
1.300828457,0.3724429,-0.02917869,0.1232438,0.0306327,-0.09447607,0.9900584,-23.4264,22.81287,-7.51624,882.2844
1.320840836,-0.4277615,-0.02930929,0.06224799,0.02429082,-0.1037475,0.9865807,-23.4264,22.81287,-7.51624,882.2827
1.340854168,0.1258878,0.08878986,-0.1208666,0.025745,-0.09498785,0.9905226,-23.4264,22.81287,-7.51624,882.2827
1.360866547,0.06427979,-0.08829562,0.1227372,0.02476236,-0.08770587,0.9896137,-23.06372,23.54068,-7.511044,882.2842
1.380879402,-0.3050831,-0.2063405,-0.06016563,0.02085384,-0.09015597,0.9900648,-23.06372,23.54068,-7.511044,882.2842
1.400891781,-0.735294,-0.02851498,0.0009778626,0.01744231,-0.09358387,0.9842287,-23.80294,23.5538,-7.51761,882.2825
1.420905113,0.6183,0.5020516,0.06181483,0.01938582,-0.1013265,0.99963,-23.80294,23.5538,-7.51761,882.2825
1.440917492,0.9877847,0.5603878,0.06141102,0.02184843,-0.0974519,0.9808281,-23.80294,23.5538,-7.51761,882.2792
1.460930824,0.4319376,-0.7990658,0.06106553,0.02327913,-0.08186898,0.9998029,-23.4368,23.91442,-7.51337,882.2792
1.480943203,0.1866512,-0.2072648,0.06070188,0.02769965,-0.08332676,0.982412,-23.4368,23.91442,-7.51337,882.2825
1.500955582,0.0623809,-0.5613036,-0.06086139,0.02276525,-0.06194013,1.00673,-23.06568,23.53929,-7.137874,882.2825
1.520968914,-0.243406,-0.9144347,-0.1212036,0.03696517,-0.07888324,0.9969701,-23.06568,23.53929,-7.137874,882.2789
1.540981293,1.788556,0.561283,-0.1205741,0.02915004,-0.08863986,0.9997644,-23.06568,23.53929,-7.137874,882.2789
1.560994148,1.66581,0.2650783,0.3058916,0.0262527,-0.1018032,0.979356,-23.8049,23.5524,-7.144441,882.2789
1.581007004,1.049675,0.44235,0.4268025,0.03504411,-0.1051462,0.9870846,-23.8049,23.5524,-7.144441,882.2789
1.601019859,-2.090563,-0.3839024,-0.0006615184,0.02772483,-0.09937499,0.9726169,-23.43758,23.54422,-6.705793,882.2805
1.621032238,-0.859686,0.1482606,0.1210573,0.01643943,-0.07996781,0.9959332,-23.43758,23.54422,-6.705793,882.2805
1.641045570,0.3103248,0.02995526,-0.2442449,0.009594824,-0.08291509,0.9997531,-23.43758,23.54422,-6.705793,882.2787
1.661057949,0.7408118,0.1471273,-0.2434213,0.007634771,-0.08631774,1.006483,-23.79948,23.18661,-7.518566,882.2787
1.681070328,0.2484417,0.08740216,-0.2429059,0.01302631,-0.0848501,0.9925008,-23.79948,23.18661,-7.518566,882.2787
1.701083660,-1.290937,-0.3260093,0.06216884,0.03014308,-0.09544855,0.9914981,-23.43183,23.17866,-7.142114,882.2787
1.721096039,0.125557,-0.0890466,0.3665159,0.0399185,-0.09248337,0.9891366,-23.43183,23.17866,-7.142114,882.2802
1.741109371,0.6801547,-0.3833404,0.3047373,0.0413835,-0.08373639,0.9838991,-23.43183,23.17866,-7.142114,882.2802
1.761121750,1.295193,0.5615683,-0.1224776,0.03599738,-0.08423951,0.9925749,-23.06222,23.17211,-7.138831,882.282
1.781134605,0.9249432,0.737614,-0.305071,0.02964476,-0.08039207,0.9887227,-23.06222,23.17211,-7.138831,882.282
1.801146984,0.0002457453,0.4990063,-0.4871678,0.001777007,-0.09218312,1.004484,-23.43333,23.54724,-7.514327,882.2853
1.821159840,-1.906725,-0.2680883,0.001286991,0.008669266,-0.1135625,0.9777564,-23.43333,23.54724,-7.514327,882.2853
1.841172695,0.001554351,-0.2084861,0.3056529,0.014005,-0.09940873,1.002045,-23.43333,23.54724,-7.514327,882.2853
1.861185074,0.4943599,-0.1483105,0.5485684,0.01351744,-0.07902521,0.98627,-23.43333,23.54724,-7.514327,882.2853
1.881198406,0.8621074,0.2056015,-0.1227311,0.01642431,-0.06635842,0.9989445,-23.43333,23.54724,-7.514327,882.2853
1.901210785,0.431691,0.3230925,-0.4271366,0.02525655,-0.09402001,0.9895629,-23.06372,23.54068,-7.511044,882.2853
1.921224117,-0.8617038,-0.09096629,-0.4261599,0.03748819,-0.1041624,0.9861339,-23.06372,23.54068,-7.511044,882.2868
1.941236496,-0.3066753,-0.3858302,-0.1205486,0.03211622,-0.1085654,0.9855981,-23.06372,23.54068,-7.511044,882.2868
1.961249351,-0.3059053,-0.5024796,0.2452496,0.04384846,-0.1089896,0.9841805,-23.43529,23.54585,-7.141157,882.2868
1.981262207,0.8627541,0.383428,0.4271521,0.02426502,-0.08235888,0.9930382,-23.43529,23.54585,-7.141157,882.2868
2.001274586,0.7998948,0.5009546,0.5478161,0.01937012,-0.07121221,0.9911834,-23.06222,23.17211,-7.138831,882.2868
2.021287441,0.675283,0.14549,0.1811939,0.007119443,-0.06007674,1.01008,-23.06222,23.17211,-7.138831,882.2868
2.041300297,-0.8627323,-0.3259957,-0.2453282,0.009116119,-0.06885234,0.9810267,-23.06222,23.17211,-7.138831,882.285
2.061313152,-0.184924,-0.03088237,-0.2444636,0.01498263,-0.1008598,1.003003,-23.06372,23.54068,-7.511044,882.285
2.081325531,-0.6144894,0.1464471,-0.1830297,0.01209186,-0.1203413,0.9815755,-23.06372,23.54068,-7.511044,882.29
2.101338863,0.3084048,0.1458569,0.06097873,0.01597441,-0.1062108,0.9947482,-22.69608,23.53273,-7.134591,882.29
2.121351242,0.2465704,-0.2084566,0.1214355,0.01891512,-0.1018357,0.9846479,-22.69608,23.53273,-7.134591,882.2883
2.141364574,-0.1239457,-0.2084152,0.1210541,0.03061266,-0.08571512,1.000759,-23.06026,23.1735,-7.512,882.2883
2.161376953,0.2456828,0.3235298,-0.06180628,0.03698456,-0.0842455,0.9843648,-23.06026,23.1735,-7.512,882.2883
2.181389332,-0.2473572,-0.2084445,-0.1830813,0.03159026,-0.0798849,0.9964625,-23.06026,23.1735,-7.512,882.2883
2.201402187,-0.000196388,0.4414149,-0.1823729,0.02720931,-0.0847838,0.984814,-23.43333,23.54724,-7.514327,882.2883
2.221415043,0.1835644,0.2039587,0.1835996,0.01497414,-0.08968528,1.002129,-23.43333,23.54724,-7.514327,882.2883
2.241427898,-0.0004054988,-0.03206731,0.4268599,0.01499124,-0.08776359,0.9862021,-23.8049,23.5524,-7.144441,882.2883
2.261440277,-0.06239226,0.02707231,0.2430978,0.01547293,-0.08484016,0.9900926,-23.8049,23.5524,-7.144441,882.2883
2.281453610,-0.062487,-0.03205479,-0.1231612,0.01644114,-0.0799698,0.9944838,-23.8049,23.5524,-7.144441,882.2883
2.301465988,0.2460241,0.3222882,-0.1839975,0.02280938,-0.08480635,0.9857669,-23.06568,23.53929,-7.137874,882.2898
2.321479321,-0.2470359,-0.03276513,-0.1834016,0.02428391,-0.1003415,0.9899907,-23.06568,23.53929,-7.137874,882.2898
2.341491699,-0.1852397,-0.09202001,-0.4871766,0.02575391,-0.1066483,0.9913922,-23.06222,23.17211,-7.138831,882.2881
2.361504078,-0.123386,-0.09177034,0.1229763,0.02477775,-0.1022864,0.9870774,-23.06222,23.17211,-7.138831,882.2881
2.381517410,0.4304263,-0.03248075,0.2444802,0.02622795,-0.09352215,0.994401,-23.06222,23.17211,-7.138831,882.2863
2.401529789,0.2456628,-0.09099495,0.4264228,0.03013481,-0.07990548,0.9872788,-23.80294,23.5538,-7.51761,882.2863
2.421542645,0.3673404,0.02681445,0.05983758,0.02033599,-0.07022246,1.000374,-23.80294,23.5538,-7.51761,882.2863
2.441555500,0.1831411,0.1453844,-0.184072,0.02036028,-0.07995921,0.9867659,-23.06568,23.53929,-7.137874,882.2863
2.461568356,-0.5554318,0.08605298,-0.3664725,0.01693913,-0.08871549,0.9929636,-23.06568,23.53929,-7.137874,882.2863
2.481580734,-0.123911,0.1450815,-0.1828045,0.01695223,-0.09601207,0.9871058,-23.06568,23.53929,-7.137874,882.2863
2.501594067,0.0608367,0.3221357,-0.1217358,0.01353603,-0.09797826,0.9841806,-23.4368,23.91442,-7.51337,882.2861
2.521606445,-0.370795,0.08540537,-0.06095428,0.01694211,-0.0974565,0.9967561,-23.4368,23.91442,-7.51337,882.2861
2.541619778,-0.06249586,0.02691044,0.1216214,0.02330551,-0.09403528,0.9861751,-23.06568,23.53929,-7.137874,882.2861
2.561632156,0.1833317,-0.03230896,-0.0004201997,0.02475041,-0.08769192,0.9997591,-23.06568,23.53929,-7.137874,882.2861
2.581644535,-0.06270244,-0.03222786,-0.1222893,0.02965974,-0.0944867,0.9861904,-23.06568,23.53929,-7.137874,882.2844
2.601657391,0.306096,0.1445674,0.06084222,0.02426684,-0.08381727,0.9925431,-23.43104,23.54886,-7.949691,882.2844
2.621670246,0.3063515,0.08531217,-0.1217714,0.02329278,-0.08188494,0.9882081,-23.43104,23.54886,-7.949691,882.2844
2.641683102,0.05987331,0.321372,0.06126302,0.0267151,-0.08769261,0.9915521,-23.80294,23.5538,-7.51761,882.2844
2.661695480,0.3057992,0.08464345,0.1219485,0.01742723,-0.08531414,0.9910607,-23.80294,23.5538,-7.51761,882.2827
2.681708813,-0.2484133,0.08441248,0.42649,0.01547245,-0.08823754,0.9929631,-23.80294,23.5538,-7.51761,882.2827
2.701721191,0.05961754,-0.03371409,0.06074622,0.01840908,-0.08968265,0.9905444,-23.43183,23.17866,-7.142114,882.2827
2.721734524,-0.3093084,-0.0334812,-0.0002264548,0.02086418,-0.1008473,0.98901,-23.43183,23.17866,-7.142114,882.2827
2.741746902,-0.2480129,-0.03395323,6.106868E-05,0.01694457,-0.09503228,0.9929112,-23.43183,23.17866,-7.142114,882.271
2.761759281,0.3063829,-0.03392361,0.0002905261,0.02672218,-0.09789467,0.9929169,-23.43183,23.17866,-7.142114,882.271
2.781772613,-0.3708208,0.02535065,0.0005767308,0.02916772,-0.09400012,0.9886085,-23.43183,23.17866,-7.142114,882.2677
2.801784992,0.5523891,0.08417917,-0.06037891,0.02279402,-0.0847884,0.998811,-23.06372,23.54068,-7.511044,882.2677
2.821797848,-0.06327073,0.02540921,0.2440082,0.02378456,-0.07945872,0.9838816,-23.06372,23.54068,-7.511044,882.2659
2.841810226,0.1206677,0.02516009,0.06095392,0.02132414,-0.07993796,0.9983637,-23.43529,23.54585,-7.141157,882.2659
2.861823559,0.0592659,0.1432525,-0.1218512,0.01399067,-0.07220855,0.9945408,-23.43529,23.54585,-7.141157,882.2626
2.881835937,6.89291,19.63304,-0.792118,0.3937132,-0.1239819,1.068687,-23.43529,23.54585,-7.141157,882.2626
2.901849270,-7.143359,4.10046,0.5488747,0.1235468,-0.1435439,0.9831676,-24.17451,23.55896,-7.147724,882.2609
2.921861649,-6.281483,0.2025506,0.3660121,0.4279396,-0.1500246,1.076304,-24.17451,23.55896,-7.147724,882.2609
2.941874981,-4.742419,-13.44013,0.4269663,0.137474,0.007786525,1.083501,-24.54524,23.19508,-6.281235,882.2642
2.961887360,-6.527733,-3.222884,0.2441037,-0.05033419,-0.04996701,0.8157795,-24.54524,23.19508,-6.281235,882.2642
2.981899738,-2.15679,4.691051,0.1831494,-0.02487526,-0.2081265,0.8932937,-24.54524,23.19508,-6.281235,882.2592
3.001912594,-32.44558,-3.872536,0.8536458,0.08778438,-0.1242235,1.039744,-26.34483,23.95673,-5.113488,882.2592
3.021925449,-9.421175,-6.884556,0.5488747,0.04186533,-0.08955067,0.9939978,-26.34483,23.95673,-5.113488,882.2625
3.041938305,-8.559299,-2.0417,0.9146,0.03295311,-0.05742684,1.068154,-28.51477,23.61548,-1.837267,882.2625
3.061950684,-16.624,-5.05372,0.4879205,0.116723,-0.1838927,0.9963402,-28.51477,23.61548,-1.837267,882.2607
3.081964016,-15.94681,-11.60929,1.646051,0.06039997,-0.1112492,1.042185,-30.67123,22.54451,0.1931419,882.2607
3.101976395,-7.63586,-3.163825,0.4879205,0.07795601,-0.09606002,1.064587,-30.67123,22.54451,0.1931419,882.2524
3.121989727,-9.913676,-5.939609,1.036508,0.08644567,-0.1403993,0.9429837,-30.67123,22.54451,0.1931419,882.2524
3.142002106,-14.46931,-6.175846,0.6707832,0.09120368,-0.148959,1.059358,-31.74508,24.02277,2.613266,882.2506
3.162014484,-14.59243,-3.222884,0.3050579,-0.00965916,-0.1828781,0.8201153,-31.74508,24.02277,2.613266,882.2506
3.179525852,-14.53087,-2.986648,0.9146,-0.008919314,-0.1859931,1.024449,-31.74508,24.02277,2.613266,882.2491
3.199538708,-25.91995,1.560913,1.280325,-0.01409795,-0.1852824,0.8558324,-32.49046,23.29223,5.092583,882.2491
3.219551086,-11.94524,-11.78647,0.6707832,0.07920305,-0.1186106,1.267312,-32.49046,23.29223,5.092583,882.2524
3.239564419,1.90634,-4.935602,0.5488747,-0.01727624,-0.1778182,0.6437977,-32.50243,23.65337,6.710606,882.2524
3.259576798,-28.19776,-1.451108,1.889868,0.04125412,-0.14135,1.135602,-32.50243,23.65337,6.710606,882.2557
3.279590130,-16.50087,-9.66034,0.4269663,0.09288295,-0.1831792,0.9030334,-32.50243,23.65337,6.710606,882.2557
3.299602509,-38.97121,-10.60529,2.987043,0.1550352,-0.1566352,1.231474,-32.88551,24.38966,7.953134,882.2575
3.319615364,-20.564,16.44384,1.097463,0.01250289,-0.3086786,0.7684131,-32.88551,24.38966,7.953134,882.2575
3.339628220,-21.11806,0.9703206,1.646051,0.0922358,-0.02417652,1.338184,-31.48007,24.66447,9.583583,882.2607
3.359641075,-10.65243,-5.05372,0.3660121,0.08781575,-0.2855075,0.7142395,-31.48007,24.66447,9.583583,882.2607
3.379653454,-10.77555,1.147498,1.524142,0.01749855,-0.1397644,0.9698361,-31.48026,23.98665,10.82573,882.264
3.399666786,-25.55057,-3.931595,1.646051,0.05651997,-0.159362,1.051437,-31.48026,23.98665,10.82573,882.264
3.419679165,-11.76055,-8.83351,0.6707832,0.08814033,-0.3066714,0.8691447,-31.48026,23.98665,10.82573,882.264
3.439691544,-53.00748,-7.770445,3.291814,0.01454917,-0.3189684,0.6982825,-30.75394,24.64206,12.07794,882.264
3.459704876,8.924475,-9.128807,-1.096889,0.05177898,-0.1619869,0.9286905,-30.75394,24.64206,12.07794,882.2673
3.479717255,-45.06591,-13.02672,1.402234,0.1797616,-0.4549753,0.7865456,-29.64708,24.621,12.46096,882.2673
3.499730110,-20.74869,-3.281944,1.950822,0.08254938,-0.1603388,0.9457056,-29.64708,24.621,12.46096,882.2705
3.519742966,-17.42431,-10.0147,1.280325,0.1582375,-0.1161593,0.9728702,-29.64708,24.621,12.46096,882.2705
3.539755821,-25.85838,-14.26696,1.463188,0.119239,-0.2024097,0.9483661,-28.96619,23.56398,13.70817,882.2723
3.559768200,-36.75496,-6.707379,2.011776,-0.04527902,-0.2195474,0.796032,-28.96619,23.56398,13.70817,882.2723
3.579781532,-25.36588,0.2616099,2.07273,0.07143489,-0.1255096,1.228099,-26.44745,24.25354,13.73252,882.2756
3.599793911,-38.78653,-15.09379,0.9146,0.09332067,-0.3001028,1.031058,-26.44745,24.25354,13.73252,882.2756
3.619807243,-33.24589,-15.86156,2.255593,0.1554787,-0.2935561,0.9535176,-26.44745,24.25354,13.73252,882.2756
3.639819622,-46.78966,-18.63734,2.011776,0.1329984,-0.3150394,0.9667993,-24.2833,23.11212,14.18416,882.2756
3.659832001,-43.83466,-25.19292,3.291814,0.088835,-0.2573083,1.073913,-24.2833,23.11212,14.18416,882.2773
3.679845333,-36.13933,-7.888563,1.402234,-0.0350249,-0.340835,0.8921642,-23.18218,23.45661,15.0035,882.2773
3.699857712,-45.00434,-11.60929,3.596586,0.1057096,-0.3589708,0.9291536,-23.18218,23.45661,15.0035,882.2803
3.719870567,-33.79995,-9.719399,0.9755543,0.0379228,-0.3779609,0.8147778,-23.18218,23.45661,15.0035,882.2803
3.739882946,-47.52841,-8.656333,2.133684,0.1535465,-0.3445624,0.9709646,-21.76843,23.05965,16.25903,882.2786
3.759896278,-59.7178,-5.998668,-2.98647,0.1361579,-0.4089744,0.8418706,-21.76843,23.05965,16.25903,882.2786
3.779908657,-57.19374,-6.58926,-0.4873469,0.1932913,-0.4333609,0.9031957,-19.60185,21.24226,17.45526,882.2802
3.799921989,-70.79907,4.218578,0.0002867747,0.0776309,-0.3151777,1.084028,-19.60185,21.24226,17.45526,882.2802
3.819934368,-49.92935,-4.285951,7.070976,0.04570525,-0.416708,0.8748695,-19.60185,21.24226,17.45526,882.2802
3.839947700,-53.99248,-12.96766,3.65754,0.1626623,-0.514783,0.8236819,-17.43017,19.05885,18.33956,882.2802
3.859960079,-52.39186,36.0515,2.255593,0.1029198,-0.5115749,0.9182192,-17.43017,19.05885,18.33956,882.2802
3.879972935,-41.37215,65.75829,4.267082,0.1420501,-0.4992622,0.8841377,-14.51665,16.86419,18.73286,882.2816
3.899985313,-20.62556,89.97257,2.926089,0.2577965,-0.4227164,1.320405,-14.51665,16.86419,18.73286,882.2816
3.919998169,-11.82212,37.58704,7.680518,-0.03887175,-0.5793589,0.5954778,-14.51665,16.86419,18.73286,882.2816
3.940011024,4.738219,40.42188,11.21586,0.08482365,-0.5621424,0.9650912,-14.12179,15.08895,17.11446,882.2816
3.960023403,6.646659,23.59,12.92258,-0.08101476,-0.4886852,0.6231565,-14.12179,15.08895,17.11446,882.2781
3.980036736,33.54951,-22.18089,5.486166,0.1299961,-0.5713632,0.7960607,-14.83,12.96782,15.04988,882.2781
4.000049114,27.82419,23.11753,1.889868,0.1001906,-0.2098098,0.9424502,-14.83,12.96782,15.04988,882.2799
4.020062447,19.69793,16.97537,1.828913,0.1566172,-0.5155752,0.9772874,-14.83,12.96782,15.04988,882.2799
4.040074825,9.601663,5.990355,0.4879205,0.02074916,-0.4260317,0.9066028,-16.60297,12.26978,13.7882,882.2781
4.060087681,24.49981,15.67607,2.49941,0.04630119,-0.4012972,0.7725788,-16.60297,12.26978,13.7882,882.2781
4.080100536,8.124161,1.265617,0.5488747,0.03650624,-0.524138,0.8783002,-20.24944,12.69541,15.37394,882.2781
4.100113392,11.14073,-0.6242785,2.377501,0.05956372,-0.6100329,0.8675128,-20.24944,12.69541,15.37394,882.2781
4.120125771,11.26385,-9.246925,-1.950248,0.061439,-0.4910015,0.8491796,-20.24944,12.69541,15.37394,882.2814
4.140139103,-2.526166,-16.33403,-2.498836,0.0884109,-0.5773657,0.8350183,-21.70088,15.89955,16.24037,882.2814
4.160151482,0.7982139,-19.40511,-0.3044843,0.09320027,-0.4811116,0.8488738,-21.70088,15.89955,16.24037,882.2797
4.180163860,-12.80712,-15.56626,-0.6702096,0.0388462,-0.5249742,0.9671932,-22.49478,20.556,18.29836,882.2797
4.200177193,1.229152,-16.0978,0.1831494,0.03655193,-0.5382685,0.8496796,-22.49478,20.556,18.29836,882.2797
4.220189571,-35.95465,-3.636299,-1.82834,0.04346761,-0.4951146,0.7563336,-22.49478,20.556,18.29836,882.2797
4.240202904,-12.80712,-17.1018,-0.3044843,0.1150567,-0.5172378,0.9921252,-22.5331,24.16363,19.11629,882.2779
4.260215283,-43.77309,13.54994,-2.376928,0.002609817,-0.6654648,0.7113198,-22.5331,24.16363,19.11629,882.2779
4.280228138,-2.033665,22.94035,-6.034181,0.09872981,-0.5924223,0.7991741,-23.99768,28.09773,21.16634,882.2813
4.300240517,-21.17963,9.829205,9.326283,0.1354642,-0.6258081,0.7574602,-23.99768,28.09773,21.16634,882.2813
4.320253849,-24.01151,27.0745,6.827159,0.03268095,-0.6252253,0.879384,-26.97251,33.8221,26.06885,882.2794
4.340266228,11.20229,47.74523,4.754715,0.06800262,-0.8878875,0.5425169,-26.97251,33.8221,26.06885,882.2794
4.360279560,-0.3099126,38.29575,4.571853,-0.07723317,-0.4826889,0.7280532,-26.97251,33.8221,26.06885,882.2794
4.380291939,18.89761,21.34575,3.291814,-0.0179487,-0.5703982,0.6685651,-30.31375,42.77565,36.26363,882.2794
4.400304794,15.94261,21.05046,0.7317374,-0.1142898,-0.4994101,1.079993,-30.31375,42.77565,36.26363,882.2794
4.420317650,14.58823,18.39279,2.011776,0.02774653,-0.5800531,0.8865068,-20.77575,53.29063,42.53474,882.2794
4.440330029,22.71449,3.037393,1.524142,-0.220161,-0.5964074,0.5735347,-20.77575,53.29063,42.53474,882.2844
4.460342884,16.49667,6.108473,0.2441037,-0.05400124,-0.462878,0.9080054,-20.77575,53.29063,42.53474,882.2844
4.480355739,16.74292,-17.57428,-0.8530722,0.04644704,-0.5218514,0.7358304,-3.384361,50.577,31.61143,882.2863
4.500368595,15.94261,-14.26696,-0.2435301,-0.009719723,-0.3837707,1.017011,-3.384361,50.577,31.61143,882.2863
4.520380974,-1.848977,-17.33804,-2.255019,0.06204809,-0.5304585,0.7754214,-2.209774,42.33184,22.20778,882.2863
4.540394306,0.5519636,-21.29501,-1.40166,0.06053965,-0.4701368,1.183181,-2.209774,42.33184,22.20778,882.2863
4.560406685,0.9829016,-14.14884,-0.4263927,-0.04647167,-0.5116118,0.7747682,-2.209774,42.33184,22.20778,882.2844
4.580420017,-12.31462,-16.15685,-1.584523,-0.017806,-0.4918388,0.905942,-6.069668,35.25237,19.29314,882.2844
4.600432396,-22.0415,1.560913,-0.8530722,0.09358125,-0.5387478,0.9822202,-6.069668,35.25237,19.29314,882.2827
4.620445251,-3.203354,2.50586,-2.925516,0.08552822,-0.5725856,0.7891533,-10.72254,32.52198,18.80886,882.2827
4.640458107,-23.39588,11.66004,3.413723,-0.02049447,-0.455248,0.6719266,-10.72254,32.52198,18.80886,882.2844
4.660470962,7.816348,26.83826,6.522388,0.0006974612,-0.4819487,0.9577726,-10.72254,32.52198,18.80886,882.2844
4.680483341,30.53294,30.73617,5.059486,-0.03730676,-0.7766346,0.2387601,-14.29733,31.84472,20.45447,882.286
4.700496674,18.77449,45.20568,5.181395,-0.08043142,-0.4222024,0.9101954,-14.29733,31.84472,20.45447,882.286
4.720509052,28.50138,22.05446,2.621318,-0.0187252,-0.5331728,0.8862723,-18.33965,32.99756,25.70834,882.2776
4.740521431,44.13828,13.43182,5.181395,-0.2953721,-0.7445384,0.216027,-18.33965,32.99756,25.70834,882.2776
4.760534763,43.52265,13.90429,0.9755543,0.036572,-0.5120793,0.813663,-18.33965,32.99756,25.70834,882.2809
4.780547142,34.90389,10.83321,1.889868,0.02968452,-0.5358495,0.8690035,-15.51064,37.21167,30.65861,882.2809
4.800559998,51.21797,14.43582,2.316547,-0.152082,-0.5213618,0.8144684,-15.51064,37.21167,30.65861,882.2792
4.820572853,44.01515,1.442794,2.438455,0.02526671,-0.4081861,0.7927493,-5.009574,38.09365,23.41535,882.2792
4.840585709,53.06485,-3.518181,0.9755543,-0.08440166,-0.3575926,0.9145834,-5.009574,38.09365,23.41535,882.2792
4.860598087,46.53922,1.02938,2.194638,-0.05396385,-0.4634071,0.8765988,-5.009574,38.09365,23.41535,882.2792
4.880611420,46.35453,-2.80947,1.950822,0.002460707,-0.3278363,1.009298,-3.144561,33.43558,16.82644,882.2757
4.900623798,36.93545,-10.66435,0.06124099,0.005021965,-0.3765022,0.9446486,-3.144561,33.43558,16.82644,882.2757
4.920637131,32.31826,-4.640306,1.585096,-0.004631845,-0.3432031,0.8173533,-5.993967,30.68556,13.12389,882.2724
4.940649509,56.45079,-7.947622,-0.2435301,0.01949974,-0.251454,1.011431,-5.993967,30.68556,13.12389,882.2724
4.960662365,50.29453,-8.479156,-0.2435301,-0.02587353,-0.2585911,0.9474647,-5.993967,30.68556,13.12389,882.2706
4.980675220,36.31983,-6.707379,1.280325,-0.06728479,-0.3531432,0.9025939,-8.50073,29.63485,11.48152,882.2706
5.000688076,43.95359,-5.939609,0.1831494,-0.06997029,-0.2354027,1.02289,-8.50073,29.63485,11.48152,882.2739
5.020700455,39.89046,-8.656333,-1.157843,-0.1010226,-0.324185,0.8930699,-10.27796,28.9338,11.02838,882.2739
5.040713787,58.72861,-10.42811,0.1831494,-0.1023069,-0.1757792,1.046476,-10.27796,28.9338,11.02838,882.2722
5.060726166,20.00574,-4.226891,2.377501,0.2453998,-0.209079,0.9013449,-10.27796,28.9338,11.02838,882.2722
5.080738544,-43.95778,0.1434914,-1.035935,-0.43902,-0.1617223,0.5851728,-12.06151,28.65951,11.01171,882.2722
5.100751877,58.23611,-8.95163,-0.6092554,-0.01259395,-0.1901727,0.8272928,-12.06151,28.65951,11.01171,882.2722
5.120764256,70.97955,5.931295,0.0002867747,-0.1445188,-0.2928724,0.8675935,-13.19017,30.08207,12.24943,882.2722
5.140777588,29.54794,-1.982641,1.097463,0.0148107,-0.2278386,1.241092,-13.19017,30.08207,12.24943,882.2722
5.160789967,8.555099,0.1434914,0.1221952,-0.0457539,-0.3656773,0.8899937,-13.19017,30.08207,12.24943,882.2722
5.180802822,6.646659,-3.163825,0.1221952,0.001803475,-0.2087145,1.066324,-13.19363,30.44926,12.25038,882.2722
5.200815201,20.0673,-14.38508,-0.7311638,-0.02804608,-0.2720276,0.7265638,-13.19363,30.44926,12.25038,882.2755
5.220828533,37.48952,4.277637,0.3660121,-0.02685334,-0.1925768,0.9016295,-11.7144,30.79323,11.45594,882.2755
5.240840912,33.30326,-12.9086,0.0002867747,-0.0411627,-0.1983205,1.020868,-11.7144,30.79323,11.45594,882.2737
5.260854244,32.62607,-0.8014562,-0.06066744,0.01976435,-0.161387,1.136821,-11.38984,30.42988,8.969924,882.2737
5.280866623,17.78949,0.556906,0.9146,0.008530512,-0.1959215,1.155343,-11.38984,30.42988,8.969924,882.2737
5.300879955,1.66009,-4.285951,0.2441037,0.01648032,-0.1004032,0.9759564,-11.38984,30.42988,8.969924,882.2737
5.320892334,-5.173357,3.982341,0.1221952,-0.03419385,-0.1139681,0.8524977,-11.01827,30.42471,8.600038,882.277
5.340905190,23.45325,-9.896577,0.4879205,0.02767729,-0.2600813,0.7137862,-11.01827,30.42471,8.600038,882.277
5.360917568,35.2117,-15.38909,-1.096889,-0.05310192,-0.1020269,1.128881,-11.0048,29.69499,7.354226,882.277
5.380930901,0.7982139,-8.479156,-0.3654385,0.05432818,-0.1265729,1.229005,-11.0048,29.69499,7.354226,882.277
5.400943279,-5.604295,-6.707379,-0.3044843,0.08764229,-0.1512409,1.180106,-11.0048,29.69499,7.354226,882.277
5.420955658,-6.835546,-3.931595,-0.8530722,-0.07387249,-0.1165055,0.9301388,-11.67704,30.08046,5.669902,882.277
5.440968990,13.29542,-3.813477,0.06124099,-0.08791441,-0.06528227,0.7807555,-11.67704,30.08046,5.669902,882.277
5.460981369,5.353845,-8.479156,-0.2435301,-0.006457839,-0.08115005,0.9335329,-12.04548,29.71821,6.101027,882.277
5.480994701,-15.02337,-11.55023,-0.3654385,0.022693,-0.1555415,1.135912,-12.04548,29.71821,6.101027,882.2787
5.501007080,-5.542732,0.4978468,0.1221952,0.03411691,-0.1741397,0.9942402,-12.04548,29.71821,6.101027,882.2787
5.521019935,-4.865544,-11.90459,-0.06066744,0.008324773,-0.1511109,0.8822711,-12.7847,29.73132,6.09446,882.2772
5.541032791,-32.99964,-52.77357,-0.6702096,0.5458805,-0.3470386,1.50693,-12.7847,29.73132,6.09446,882.2772
5.561045647,-11.45274,5.281644,-0.06066744,0.1042651,-0.3327916,0.8916832,-12.78816,30.09851,6.095417,882.2772
5.581058025,-24.99651,7.821191,0.1221952,-0.03256267,-0.04998921,1.081545,-12.78816,30.09851,6.095417,882.2772
5.601071358,-10.40618,27.01544,0.3660121,-0.01427528,-0.1185728,0.9583215,-12.78816,30.09851,6.095417,882.2772
5.621083736,53.92672,56.89941,0.6707832,-0.1965794,0.3587499,1.441459,-11.37211,29.70317,6.915579,882.2805
5.641097069,-27.45901,28.90533,9.14342,-0.0008758609,0.3492934,0.8627149,-11.37211,29.70317,6.915579,882.2805
5.661109447,54.66548,32.50795,1.950822,-0.05869301,0.1430225,1.965231,-13.17937,30.08974,10.197,882.2805
5.681122303,48.2014,39.536,5.54712,-0.005155549,-0.1328903,1.110411,-13.17937,30.08974,10.197,882.2805
5.701134682,37.79733,22.52694,1.524142,-0.06927716,-0.2239888,0.8408526,-13.17937,30.08974,10.197,882.2805
5.721148014,38.04358,21.70011,-0.5483012,-0.09400588,-0.09271839,0.9930801,-17.19635,30.47646,23.65922,882.2805
5.741160393,48.01672,14.31771,2.316547,-0.1006743,-0.1478113,0.8848694,-17.19635,30.47646,23.65922,882.282
5.761173725,39.89046,11.83722,2.865135,-0.1051727,-0.09820614,0.933578,-4.62747,30.93274,22.15553,882.282
5.781186104,49.55578,4.572933,3.352769,-0.05635548,-0.2052386,0.6453856,-4.62747,30.93274,22.15553,882.2803
5.801198482,38.65921,-2.750411,2.316547,-0.1887598,-0.07243542,0.9229118,-4.62747,30.93274,22.15553,882.2803
5.821211815,38.47452,7.053421,0.3050579,-0.03771488,-0.05028026,0.8911806,2.320967,28.05605,6.224854,882.2803
5.841224194,41.12171,13.07746,0.6098289,-0.08263177,0.01989296,1.214347,2.320967,28.05605,6.224854,882.2803
5.861237049,-2.033665,41.01247,3.291814,-0.005097653,-0.07276602,1.017668,-0.8017818,23.48788,-0.7815428,882.2785
5.881249905,69.87143,27.96039,-0.5483012,-0.08535478,-0.08618902,1.112972,-0.8017818,23.48788,-0.7815428,882.2785
5.901262760,36.31983,147.1419,9.631054,0.08574636,-0.09461493,0.6733001,-0.8017818,23.48788,-0.7815428,882.2818
5.921275139,85.01582,97.29591,-4.1446,0.01760018,0.02290883,1.596816,-2.21316,19.61884,-6.526808,882.2818
5.941288471,1.044464,397.9074,-8.899028,-0.06460046,-0.08740158,0.5057506,-2.21316,19.61884,-6.526808,882.28
5.961300850,-17.48587,460.6283,-18.89552,0.2368039,0.1150738,1.326245,-3.568826,16.79186,-13.01515,882.28
5.981314182,-21.73369,642.9441,7.010021,-0.03491149,-0.2925141,0.3451967,-3.568826,16.79186,-13.01515,882.2783
6.001326561,-14.09993,738.7972,7.192884,-0.4721189,-0.0394279,-0.4506762,-3.568826,16.79186,-13.01515,882.2783
6.021339417,-6.589296,809.1958,11.45968,-0.3925852,0.08891378,-0.01408866,-5.667036,15.76223,-22.05543,882.2833
6.041352272,-11.0218,875.8146,-0.4263927,-0.4235102,-0.007872377,-0.6618726,-5.667036,15.76223,-22.05543,882.2833
6.061365128,-18.96338,922.9438,-0.1216217,-0.4390094,0.05974818,-1.24641,-1.308649,16.08822,-31.4698,882.2833
6.081377506,-16.25462,920.9949,-6.460861,-0.2188275,0.01600059,-1.419065,-1.308649,16.08822,-31.4698,882.2833
6.101390839,-10.71399,896.9578,-1.218798,-0.262964,-0.03763734,-2.085373,-1.308649,16.08822,-31.4698,882.285
6.121403217,8.062598,752.6171,-11.03243,-0.4700408,0.04940245,-2.281902,11.64134,13.71218,-30.11657,882.285
6.141416550,-92.16129,415.2117,-7.436128,-0.793359,0.1402603,-1.720743,11.64134,13.71218,-30.11657,882.285
6.161428928,-118.7563,191.3182,8.960557,-0.03056362,0.2407793,-1.244166,18.05695,-11.41313,-33.79655,882.285
6.181441784,-41.00278,134.5032,1.828913,-0.2251006,0.2086712,-1.211682,18.05695,-11.41313,-33.79655,882.2868
6.201454639,44.07671,129.306,1.646051,-0.1262255,0.5058033,-0.7195298,2.769442,3.916296,-35.50901,882.2868
6.221467495,-71.96877,203.7797,21.45617,-0.1652355,0.02620064,-1.280649,2.769442,3.916296,-35.50901,882.29
6.241479874,-47.15903,-12.31801,1.280325,-0.483751,0.357378,-1.236833,2.769442,3.916296,-35.50901,882.29
6.261492252,2.460404,-9.365044,-0.9749807,0.01588192,0.1148947,-0.7489113,4.112672,15.25304,-30.17966,882.2919
6.281505585,6.708222,0.6750244,1.34128,-0.1715758,-0.003460243,-1.270769,4.112672,15.25304,-30.17966,882.2919
6.301517963,-0.1867874,12.19157,2.804181,-0.09206372,0.1025775,-0.7995816,1.187698,16.39225,-26.53301,882.2919
6.321531296,-0.3099126,5.222585,0.5488747,-0.2316833,0.1914292,-1.004589,1.187698,16.39225,-26.53301,882.2919
6.341543675,-8.128361,-32.04379,-4.205554,-0.07955942,0.1314354,-1.063085,1.187698,16.39225,-26.53301,882.2936
6.361556530,29.24013,12.36875,2.194638,-0.1490973,0.1297598,-0.9478438,-1.394443,17.81394,-18.34205,882.2936
6.381569386,-13.66899,-11.78647,-1.706431,-0.141776,0.1230155,-0.9343505,-1.394443,17.81394,-18.34205,882.2936
6.401582241,0.1210255,3.27363,-0.1825759,-0.09884297,0.2150835,-0.9349084,0.7078325,20.26342,-12.59443,882.2936
6.421594620,12.55667,-11.37306,-1.279752,-0.07989259,0.08999041,-1.165366,0.7078325,20.26342,-12.59443,882.2936
6.441607952,12.12573,17.74314,1.219371,-0.0423405,0.1155323,-1.113832,0.7078325,20.26342,-12.59443,882.2936
6.461620331,3.691655,2.151505,-0.792118,-0.09603818,0.1958319,-0.8123484,3.568635,22.71348,-10.50975,882.2903
6.481633663,11.44854,4.986348,0.3660121,-0.1042958,0.1996103,-0.8587209,3.568635,22.71348,-10.50975,882.2903
6.501646042,-6.527733,-6.943615,-0.792118,-0.01959938,0.1324304,-0.9300404,6.074607,23.39399,-8.0598,882.2903
6.521658897,-0.1867874,-0.8014562,-0.7311638,-0.04830979,0.08212839,-1.001078,6.074607,23.39399,-8.0598,882.2903
6.541671753,-1.048664,5.399763,0.1221952,-0.07643533,0.09045236,-1.196272,6.074607,23.39399,-8.0598,882.2936
6.561684608,9.663225,-13.49919,-1.035935,-0.0743375,0.09960739,-0.9087366,6.737365,24.0491,-6.434961,882.2936
6.581696987,10.5251,10.24262,0.7926916,-0.02985443,0.1148894,-0.9249022,6.737365,24.0491,-6.434961,882.2953
6.601710319,-23.76526,0.08443219,-0.3654385,-0.09627007,0.139706,-0.9901167,7.838475,24.39359,-5.615622,882.2953
6.621722698,0.7982139,-1.923581,0.4269663,-0.07214402,0.0740976,-1.093008,7.838475,24.39359,-5.615622,882.2953
6.641736030,-24.38088,3.155512,0.3050579,-0.05900874,0.1101616,-1.067064,7.838475,24.39359,-5.615622,882.2953
6.661748409,-4.188355,8.234605,0.9755543,-0.07724719,0.006276048,-1.276202,7.822327,25.8607,-5.176431,882.2903
6.681761265,46.78547,7.525895,-0.4873469,0.001697253,-0.04107733,-1.042529,7.822327,25.8607,-5.176431,882.2903
6.701774120,16.86605,23.64906,1.402234,-0.1751318,0.2079241,-0.8936492,8.549767,26.88655,-4.793985,882.2903
6.721786976,-10.96024,-30.68542,-3.535058,0.01439097,0.1857867,-0.7792479,8.549767,26.88655,-4.793985,882.2903
6.741799354,-4.742419,22.11352,2.438455,-0.08266772,0.1296832,-0.9123775,8.549767,26.88655,-4.793985,882.2903
6.761812687,-25.85838,-15.33003,-0.8530722,-0.03831397,0.00862532,-1.135479,9.59934,26.13035,-3.915867,882.2903
6.781825066,-19.76369,-1.923581,-0.3044843,-0.05566696,0.134544,-1.017092,9.59934,26.13035,-3.915867,882.2936
6.801837444,20.00574,14.19959,1.889868,-0.06625102,0.0614759,-1.107588,9.605692,25.45718,-3.917621,882.2936
6.821850777,11.32541,0.9112614,-0.3044843,-0.01309781,0.1337485,-1.056586,9.605692,25.45718,-3.917621,882.2936
6.841863155,13.23386,5.163526,0.0002867747,6.600318E-05,0.09114137,-0.9979591,9.605692,25.45718,-3.917621,882.2936
6.861876488,19.0823,11.30569,0.9146,-0.07591648,0.169146,-0.863236,7.820747,25.1203,-3.561277,882.2936
6.881888866,1.167589,2.623979,0.3050579,-0.06856341,0.1181914,-0.8447943,7.820747,25.1203,-3.561277,882.2936
6.901901722,-33.49214,11.83722,1.280325,-0.02389509,0.1235486,-1.01129,8.538257,27.61767,-3.921343,882.2966
6.921914101,1.167589,-12.37706,-0.8530722,-0.08301332,0.09407775,-1.00833,8.538257,27.61767,-3.921343,882.2966
6.941927433,15.14229,-5.526194,-0.7311638,-0.03078438,0.05172404,-0.9196307,8.538257,27.61767,-3.921343,882.2966
6.961939812,-12.4993,18.62903,0.5488747,-0.09138383,0.08779427,-0.9513997,8.157658,29.03339,-4.356324,882.2966
6.981953144,4.553531,5.813177,0.1221952,-0.14621,0.1434204,-0.9192183,8.157658,29.03339,-4.356324,882.2966
7.001965523,-6.404608,-1.687344,-0.4263927,-0.0390591,0.1433832,-1.015036,9.56214,30.10842,-3.967699,882.2966
7.021978378,9.232287,11.66004,1.34128,-0.1385614,0.06396614,-1.131457,9.56214,30.10842,-3.967699,882.2964
7.039489746,2.152591,-7.888563,-1.035935,-0.03167004,0.07636777,-1.015569,9.56214,30.10842,-3.967699,882.2964
7.059502125,-5.48117,11.24663,0.4879205,-0.01163718,0.1284235,-1.04793,8.877843,30.79338,-3.90977,882.2981
7.079515457,11.87948,-3.163825,-1.340706,-0.09036778,0.03775643,-0.9479461,8.877843,30.79338,-3.90977,882.2981
7.099527836,7.816348,2.623979,-0.6702096,0.00828184,0.09954724,-0.9249147,7.765167,31.91924,-5.160646,882.2981
7.119540691,-16.1315,32.03547,1.524142,-0.07985547,0.09043245,-1.197248,7.765167,31.91924,-5.160646,882.2981
7.139553547,43.64577,-10.95964,0.3050579,-0.03436852,0.2256756,-0.9070894,7.765167,31.91924,-5.160646,882.2981
7.159566402,7.016035,-1.214871,-0.3044843,-0.008804947,0.1169065,-0.9542922,7.02131,32.66835,-5.600664,882.2997
7.179578781,6.585097,4.631992,0.3050579,0.02215065,0.07173805,-1.060858,7.02131,32.66835,-5.600664,882.2997
7.199592114,-8.128361,5.635999,-0.1216217,-0.04446587,0.09096441,-0.9512324,7.396348,32.29601,-5.971506,882.298
7.219604492,5.23072,12.72311,0.9146,-0.1202584,0.1522428,-0.9659293,7.396348,32.29601,-5.971506,882.298
7.239617825,14.46511,-14.73943,-0.3654385,0.06092025,0.1116557,-0.8082257,7.396348,32.29601,-5.971506,882.298
7.259630203,-9.728989,3.037393,0.4269663,-0.005335745,0.09162733,-0.9767144,7.754178,33.32841,-5.592344,882.298
7.279643059,-35.83152,20.10551,0.7926916,0.03471597,0.1743966,-1.014074,7.754178,33.32841,-5.592344,882.298
7.299655914,17.17386,-13.02672,-0.4873469,-0.05461215,0.03883152,-1.013533,7.745749,34.43135,-5.962643,882.298
7.319668770,-29.05964,-0.2108639,-0.4873469,0.03654941,0.1070761,-0.8619626,7.745749,34.43135,-5.962643,882.303
7.339681149,-3.326479,9.711086,0.4879205,-0.06820965,0.04981946,-1.096096,7.745749,34.43135,-5.962643,882.303
7.359694481,-6.897109,-6.766438,0.1221952,0.02221919,0.04690159,-1.101162,6.994751,35.48343,-5.593329,882.3012
7.379706860,-4.742419,29.20063,0.7926916,-0.01689619,0.1102967,-1.134573,6.994751,35.48343,-5.593329,882.3012
7.399720192,14.64979,-4.108773,0.2441037,-0.0506606,0.05530846,-1.06073,7.357432,36.21124,-5.588133,882.3012
7.419732571,-6.281483,-0.742397,-1.218798,-0.09858706,0.06964431,-1.047228,7.357432,36.21124,-5.588133,882.3012
7.439745426,16.55824,-1.27393,-0.5483012,-0.06059728,0.1360237,-0.981827,7.722076,36.94045,-5.956106,882.3012
7.459758282,31.33326,10.65603,1.280325,-0.1334348,0.04050155,-0.9021571,7.722076,36.94045,-5.956106,882.3012
7.479771137,11.5101,-15.38909,-1.035935,-0.16286,0.09434057,-0.8563869,7.722076,36.94045,-5.956106,882.3027
7.499783516,-56.51655,13.96335,-0.9749807,0.03470936,0.4375896,-0.7833821,9.504461,37.58355,-6.373848,882.3027
7.519796848,24.93075,10.59697,1.280325,-0.1040142,-0.01002245,-1.361928,9.504461,37.58355,-6.373848,882.3027
7.539809227,59.09798,-38.5403,-1.279752,-0.1071726,-0.05580088,-0.7212248,9.487141,39.41948,-6.369065,882.3027
7.559822559,-71.47626,-1.746404,-4.693188,-0.04282396,0.3749138,-0.4749413,9.487141,39.41948,-6.369065,882.3009
7.579834938,10.09416,25.42084,3.291814,-0.07159624,0.218686,-1.247854,9.487141,39.41948,-6.369065,882.3009
7.599847793,22.28356,-11.19588,0.7926916,-0.05029186,-0.02715816,-1.314564,10.95884,40.80543,-7.596163,882.306
7.619860649,17.54324,-6.943615,-0.1825759,0.09552131,-0.06384832,-1.011034,10.95884,40.80543,-7.596163,882.306
7.639873505,7.077597,49.22171,1.036508,-0.08487169,0.1819033,-0.7385138,10.58001,41.54473,-7.162169,882.3042
7.659885883,-10.15993,-12.49518,-1.462614,-0.1657431,0.1617402,-0.9471459,10.58001,41.54473,-7.162169,882.3042
7.679899216,12.43354,-25.42915,-0.06066744,0.04652042,-0.02076484,-0.9359415,10.58001,41.54473,-7.162169,882.3042
7.699911594,-27.95151,10.95133,-0.792118,0.009351882,0.0805131,-0.9898064,8.435143,40.85163,-7.991767,882.3042
7.719924927,0.9213391,16.56196,-0.3044843,-0.04650004,0.1035788,-1.308638,8.435143,40.85163,-7.991767,882.3042
7.739937305,31.70263,0.7340837,0.9755543,-0.05594354,0.09215036,-0.751248,6.581667,41.2502,-7.634057,882.3042
7.759950161,-17.1165,5.340703,-0.4873469,-0.005775463,0.07360688,-1.005369,6.581667,41.2502,-7.634057,882.3075
7.779962540,-3.757417,-0.09274548,-0.1825759,0.01148411,0.0740062,-1.135754,6.581667,41.2502,-7.634057,882.3075
7.799975872,23.39168,3.923282,0.3660121,-0.1064915,0.07455465,-0.9790922,6.277123,40.88848,-7.637749,882.3058
7.819988251,-11.94524,-1.27393,-0.6092554,0.006866558,0.1208381,-0.9836825,6.277123,40.88848,-7.637749,882.3058
7.840001583,3.383842,5.635999,0.5488747,0.01047373,0.0560788,-1.094841,6.59206,40.14865,-7.636927,882.3058
7.860013962,30.65607,4.0414,0.3050579,-0.05126897,0.0530185,-0.9573646,6.59206,40.14865,-7.636927,882.3058
7.880026340,-3.757417,-2.277937,-0.3044843,0.02616838,0.1236616,-0.7744128,6.59206,40.14865,-7.636927,882.304
7.900039673,-19.76369,4.80917,0.2441037,0.1638623,0.1404979,-1.086434,7.343058,39.09658,-8.00624,882.304
7.920052052,5.23072,0.4978468,0.6707832,0.06469782,0.03310555,-1.054287,7.343058,39.09658,-8.00624,882.3058
7.940064907,-1.294914,9.002376,0.06124099,-0.06106284,0.07871456,-0.9600798,8.456061,37.97094,-6.817557,882.3058
7.960077763,-6.650859,11.54192,-0.2435301,0.04322771,0.03974368,-1.08908,8.456061,37.97094,-6.817557,882.3058
7.980090618,18.15886,-6.64832,-0.06066744,-0.04866655,0.0509047,-1.090714,8.456061,37.97094,-6.817557,882.3058
8.000102997,12.74135,5.57694,-0.7311638,0.05805661,0.1154427,-0.8695585,9.513103,36.91201,-6.810966,882.309
8.020116329,6.031034,5.813177,0.4879205,0.003111874,0.07500602,-1.082629,9.513103,36.91201,-6.810966,882.309
8.040128708,9.0476,-9.069748,-0.6702096,0.01761316,0.0684783,-0.9406036,11.01292,34.37506,-6.369006,882.309
8.060142040,6.708222,2.328683,-0.7311638,-0.03270589,0.0992453,-0.9825309,11.01292,34.37506,-6.369006,882.309
8.080154419,19.88261,-0.9786339,0.0002867747,0.05829514,0.03506986,-1.014191,11.01292,34.37506,-6.369006,882.309
8.100167274,7.077597,-2.632292,-0.7311638,0.02667289,0.08821025,-0.7621439,12.07957,31.84437,-5.557708,882.309
8.120180130,-13.73056,12.19157,0.1221952,0.03339182,0.043645,-1.040283,12.07957,31.84437,-5.557708,882.309
8.140192986,-4.557731,-0.5652193,-0.4263927,0.04162823,0.07435612,-1.000872,11.7267,30.07621,-5.565615,882.309
8.160205364,-1.725852,6.462829,-0.792118,0.04800327,0.06028865,-1.008699,11.7267,30.07621,-5.565615,882.314
8.180218697,-3.695855,9.592967,0.3660121,-0.003220787,0.04776337,-1.080941,11.7267,30.07621,-5.565615,882.314
8.200231075,0.1825881,5.045407,-0.3654385,0.003488378,0.07999402,-0.9907945,13.20959,30.73081,-7.603159,882.314
8.220244408,7.323848,-0.742397,0.1831494,0.04712348,0.02861694,-1.06887,13.20959,30.73081,-7.603159,882.314
8.240256786,15.6348,-8.479156,-0.6092554,0.0582317,0.05067739,-0.9715482,14.98401,32.84684,-9.136582,882.314
8.260269642,-1.048664,8.707079,-0.3654385,0.04212607,0.04862095,-0.989972,14.98401,32.84684,-9.136582,882.314
8.280282497,8.001036,-6.412083,-0.6702096,0.02541708,0.05494791,-0.9170196,14.98401,32.84684,-9.136582,882.3123
8.300295353,2.275716,-1.569226,-1.279752,0.09144088,0.1023427,-0.9864801,16.76393,34.65873,-11.16836,882.3123
8.320307732,-1.725852,13.19558,0.9146,0.02713009,0.006611097,-1.091819,16.76393,34.65873,-11.16836,882.3123
8.340321064,2.891342,6.285651,0.4879205,0.05531628,0.04530186,-0.9822299,18.55253,35.30625,-12.76781,882.3123
8.360333443,3.137592,1.324676,-0.6092554,0.04503131,0.05789171,-0.9734606,18.55253,35.30625,-12.76781,882.3123
8.380346775,-1.848977,0.3797283,-0.3654385,0.06956271,0.07199206,-1.063129,22.49119,36.3425,-13.97381,882.3123
8.400359154,14.46511,9.888264,1.158417,0.03882122,0.03875795,-1.081855,22.49119,36.3425,-13.97381,882.3073
8.420372009,3.630093,0.1434914,-0.3654385,0.002478374,0.05041616,-0.9417648,22.49119,36.3425,-13.97381,882.3073
8.440384388,6.154159,-3.222884,-0.9140264,0.04505878,0.05106375,-0.9918754,24.65111,37.04629,-16.00518,882.304
8.460397720,1.352277,-1.510167,-0.1216217,0.01718572,0.05335603,-0.9817948,24.65111,37.04629,-16.00518,882.304
8.480410099,8.616661,12.48687,0.8536458,-0.001927142,0.03972092,-0.9283395,28.31798,35.15658,-18.83864,882.3073
8.500423431,1.290715,-0.8605154,-1.645477,0.09735743,0.04454956,-0.9883903,28.31798,35.15658,-18.83864,882.3073
8.520435810,1.106027,6.226592,0.06124099,0.06906773,0.04821117,-1.040621,28.31798,35.15658,-18.83864,882.3054
8.540449142,2.029465,15.49889,0.3660121,0.03435054,0.05095354,-1.029591,33.39993,33.67174,-22.09377,882.3054
8.560461521,0.05946291,11.89628,0.0002867747,0.01963482,0.03200464,-0.9708526,33.39993,33.67174,-22.09377,882.3037
8.580474377,3.199155,5.163526,-0.9749807,0.06555203,0.04830293,-0.9604342,37.77602,29.32815,-26.54466,882.3037
8.600486755,-2.587728,14.79018,-0.06066744,0.03723003,0.03404179,-0.9722322,37.77602,29.32815,-26.54466,882.302
8.620500088,-2.464603,12.13251,0.5488747,0.06546204,0.06636857,-0.896997,37.77602,29.32815,-26.54466,882.302
8.640512466,-11.20649,27.0745,0.6098289,0.2469564,0.02007292,-1.003603,40.39779,23.25244,-33.9392,882.3036
8.660525799,1.167589,44.96944,-1.279752,0.1911612,0.05529622,-0.9638637,40.39779,23.25244,-33.9392,882.3036
8.680538177,10.46354,66.17171,2.07273,0.3018564,0.07415351,-0.7623994,38.64491,17.5617,-41.74496,882.3018
8.700551033,35.76576,180.8056,0.6707832,0.1631221,0.0654608,-1.233924,38.64491,17.5617,-41.74496,882.3018
8.720563888,51.52578,215.06,-7.436128,0.6090277,-0.02008032,-0.8902818,38.64491,17.5617,-41.74496,882.3
8.740576744,-43.03434,432.7523,-10.36193,0.3523749,0.01482253,-1.700463,32.58588,15.54168,-45.47421,882.3
8.760589123,-27.1512,478.2279,-8.106624,0.8124142,0.08434215,-1.019246,32.58588,15.54168,-45.47421,882.2983
8.780602455,-24.38088,583.7076,2.804181,1.053498,0.04278454,-1.095681,28.19285,20.98218,-39.77655,882.2983
8.800614834,-13.60743,689.6009,7.253838,1.296657,-0.02997087,-1.252565,28.19285,20.98218,-39.77655,882.2998
8.820628166,-10.40618,779.9615,6.949067,1.51959,0.05669073,-0.9492307,28.19285,20.98218,-39.77655,882.2998
8.840640545,-14.53087,871.3261,-0.6092554,1.692078,0.08000623,-0.9287115,31.29678,27.64842,-21.32017,882.2998
8.860653400,-20.44088,910.3052,-0.7311638,1.560025,0.08570442,-0.8580435,31.29678,27.64842,-21.32017,882.298
8.880666256,-16.624,901.3282,-4.815097,1.408254,0.06576538,-0.626287,19.83535,12.06096,-4.297685,882.298
8.900679111,-13.79212,856.7385,-3.535058,1.189258,0.006366317,-0.5559363,19.83535,12.06096,-4.297685,882.298
8.920691490,6.585097,743.0494,-8.35044,0.6807192,0.06989668,-0.4071734,19.83535,12.06096,-4.297685,882.298
8.940704823,-132.5463,523.5263,-5.241776,0.1641608,0.1142015,-0.07452749,0.6181349,23.83458,-2.011899,882.2962
8.960717201,-74.86221,195.6295,4.937578,0.03320794,0.3149885,0.1663662,0.6181349,23.83458,-2.011899,882.2962
8.980730534,-9.359612,143.4802,4.510899,0.07905874,-0.1564813,0.5862903,-9.426901,25.79649,-4.522067,882.2978
9.000742912,-7.758985,36.76021,-3.656966,-0.1872717,0.09347183,0.3687093,-9.426901,25.79649,-4.522067,882.2978
9.020755768,-16.00837,53.0015,1.34128,0.05884141,0.1306775,1.361107,-9.426901,25.79649,-4.522067,882.2978
9.040768623,-81.08002,13.54994,2.926089,-0.02084249,-0.1150484,0.7216051,-22.72673,28.56276,-10.29346,882.2978
9.060781479,-63.65781,-11.314,1.280325,0.03862208,-0.1650172,0.8972234,-22.72673,28.56276,-10.29346,882.2978
9.080793858,-69.32157,-21.17689,2.621318,-0.1287732,-0.09380081,1.049491,-36.80682,30.94338,-7.613865,882.2978
9.100807190,-68.39813,-25.54727,2.560364,-0.3418214,-0.03433738,0.9633488,-36.80682,30.94338,-7.613865,882.3011
9.120819569,-85.26628,-27.37811,1.707005,-0.09502854,-0.2824696,1.168808,-36.80682,30.94338,-7.613865,882.3011
9.140832901,-45.18903,-28.38211,0.9146,-0.07039907,-0.1869335,0.9368126,-40.10647,29.8677,0.9371576,882.3011
9.160845280,-31.15277,-9.365044,1.707005,-0.027408,-0.1886191,0.9548032,-40.10647,29.8677,0.9371576,882.3011
9.180858135,-82.86534,-25.42915,4.449944,0.1362145,-0.2152703,1.069089,-36.17616,27.63286,7.123889,882.3011
9.200870514,-52.20717,-26.96469,3.718494,-0.06996809,-0.2650157,1.042452,-36.17616,27.63286,7.123889,882.3011
9.220883846,-59.77937,-33.28403,2.560364,0.386229,-0.2665562,1.301794,-36.17616,27.63286,7.123889,882.3011
9.240896225,-80.4644,-27.43717,4.449944,0.1624322,-0.4329637,0.9601138,-30.38701,25.3729,11.27461,882.3011
9.260909557,-68.95219,-23.00772,2.255593,0.1109125,-0.3199056,1.048339,-30.38701,25.3729,11.27461,882.304
9.280922413,-93.45411,-27.14187,2.987043,-0.05607684,-0.2865408,0.8828883,-24.27825,23.48534,12.56805,882.304
9.300935268,-62.42656,-35.17392,3.352769,0.07477344,-0.3080001,1.014994,-24.27825,23.48534,12.56805,882.304
9.320948124,-72.52283,-25.37009,5.486166,0.2395985,-0.3227733,0.9293728,-21.01482,22.00943,15.39216,882.304
9.340960503,-66.55125,-28.32306,4.510899,0.1387142,-0.4717117,0.791598,-21.01482,22.00943,15.39216,882.304
9.360973835,-82.55753,8.943316,3.779448,0.181913,-0.4017097,0.9966646,-21.01482,22.00943,15.39216,882.304
9.380986214,-102.8116,54.83233,-3.352195,0.2089895,-0.5416805,0.5168211,-18.18267,20.47951,18.33666,882.3023
9.400999546,-68.52126,56.01352,6.400479,0.1495901,-0.4960684,0.7044684,-18.18267,20.47951,18.33666,882.3023
9.421011925,-45.86622,76.97955,6.156662,0.08354499,-0.500236,0.7607598,-15.94134,17.93107,18.34982,882.3056
9.441024780,10.21729,71.66422,4.632807,0.1207686,-0.4457589,0.6550377,-15.94134,17.93107,18.34982,882.3056
9.461037159,40.25983,42.90237,-1.218798,-0.02173087,-0.6443524,0.6133494,-15.94134,17.93107,18.34982,882.3039
9.481050491,6.277284,5.163526,2.682272,0.2858317,-0.2911342,1.491152,-14.84904,14.74091,15.48987,882.3039
9.501062870,9.5401,27.19262,5.242349,0.007011021,-0.3566292,0.9013389,-14.84904,14.74091,15.48987,882.3022
9.521076202,7.939473,16.03042,2.682272,-0.02798169,-0.4662704,0.812399,-18.08291,12.66459,13.40286,882.3022
9.541088581,-6.158358,7.939309,2.255593,-0.0436199,-0.46927,0.8128102,-18.08291,12.66459,13.40286,882.3004
9.561101913,-9.174925,-8.301978,0.06124099,-0.01900948,-0.5251623,0.7066194,-18.08291,12.66459,13.40286,882.3004
9.581114292,2.583529,-13.26295,0.4269663,0.004721106,-0.5412813,0.9041508,-22.05721,14.49857,16.23343,882.3019
9.601127148,1.598527,-19.05076,-0.1216217,0.1005391,-0.5485538,0.8913345,-22.05721,14.49857,16.23343,882.3019
9.621139526,-0.3099126,-12.73142,-1.523569,0.007082561,-0.4397193,0.900651,-22.48706,20.19184,17.48886,882.3019
9.641152859,-12.56087,-20.64536,0.3660121,-0.006210042,-0.2858008,0.8709665,-22.48706,20.19184,17.48886,882.3019
9.661165237,-17.79369,-17.75145,-1.096889,0.06630732,-0.5841529,0.9329677,-22.48706,20.19184,17.48886,882.2984
9.681178570,-26.78182,13.96335,1.402234,0.009678922,-0.4559032,0.782645,-22.85518,25.20643,19.9248,882.2984
9.701190948,-65.19688,7.171539,-0.06066744,0.1675067,-0.8778874,0.7076407,-22.85518,25.20643,19.9248,882.2948
9.721203804,-14.59243,24.47589,5.303303,0.002370059,-0.4899485,0.7881384,-25.44206,29.88993,23.21081,882.2948
9.741216659,-14.09993,36.0515,6.827159,0.06300394,-0.5158653,0.7832749,-25.44206,29.88993,23.21081,882.2948
9.761229515,11.32541,29.90934,5.54712,-0.08943409,-0.5478222,0.7598457,-25.44206,29.88993,23.21081,882.2948
9.781241894,22.89918,37.23269,4.81567,-0.1225697,-0.4942377,0.6360296,-29.87114,37.09145,32.58259,882.2981
9.801255226,39.39796,14.79018,0.6098289,0.1848749,-0.4225127,1.402317,-29.87114,37.09145,32.58259,882.2981
9.821267605,-1.418039,2.56492,0.6707832,-0.06414685,-0.5586993,0.8767452,-26.10389,49.83463,42.91325,882.2964
9.841280937,32.62607,8.825197,1.036508,-0.03381462,-0.4838148,0.7977427,-26.10389,49.83463,42.91325,882.2964
9.861293316,20.12887,-7.35703,-0.6702096,0.03988788,-0.3803892,0.808,-26.10389,49.83463,42.91325,882.2964
9.881306171,22.40668,-11.96365,0.5488747,-0.04636956,-0.5694959,0.7298425,-4.888379,52.37167,33.28218,882.2964
9.901319027,3.937906,-14.2079,-0.1825759,-0.1283907,-0.5102515,1.025752,-4.888379,52.37167,33.28218,882.2964
9.921331882,-3.141791,-11.43212,-1.40166,-0.07822903,-0.4501497,0.7201068,-1.838991,41.95647,22.64547,882.2964
9.941344261,2.337278,-18.63734,-2.194065,0.03729857,-0.4680931,0.9951972,-1.838991,41.95647,22.64547,882.2964
9.961357594,-13.79212,-3.57724,0.3660121,-0.1121947,-0.5102423,0.9687937,-1.838991,41.95647,22.64547,882.2964
9.981369972,-5.542732,-16.98368,-1.218798,0.01520628,-0.3962557,1.026645,-6.806,34.9595,19.28578,882.2947
10.001383305,-33.92308,5.399763,-1.279752,-0.1042577,-0.3073432,1.138138,-6.806,34.9595,19.28578,882.2947
10.021395683,4.738219,8.766138,0.7317374,0.03030362,-0.5559013,0.7726997,-12.1367,31.80972,19.6029,882.2964
10.041408539,27.94731,45.67815,5.729983,0.03073672,-0.601463,0.8530037,-12.1367,31.80972,19.6029,882.2964
10.061421394,0.9829016,31.62206,2.133684,-0.2495103,-0.7053607,0.2570708,-12.1367,31.80972,19.6029,882.3014
10.081434250,40.3214,53.35585,5.059486,-0.1081366,-0.4288438,0.7839643,-16.46498,31.5051,23.29533,882.3014
10.101446629,48.6939,28.19662,4.145173,-0.01630248,-0.6579759,0.5789518,-16.46498,31.5051,23.29533,882.3014
10.121459961,44.56921,19.57398,2.49941,-0.1469027,-0.5089669,0.973048,-17.64741,35.41539,30.26151,882.3014
10.141472340,36.31983,4.336696,1.463188,0.07618272,-0.4220872,0.7304655,-17.64741,35.41539,30.26151,882.2931
10.161485672,64.1461,18.45185,3.474677,-0.1423849,-0.4076297,0.7985305,-17.64741,35.41539,30.26151,882.2931
10.181498528,47.15484,-13.67637,2.133684,-0.0274643,-0.4968825,0.8102146,-6.128085,38.47609,24.58816,882.2964
10.201510906,60.3908,-1.864522,1.097463,-0.09289287,-0.3861526,0.6746968,-6.128085,38.47609,24.58816,882.2964
10.221524239,56.14298,-9.719399,1.463188,-0.02685316,-0.3498527,1.015308,-3.139133,33.06979,16.45232,882.2964
10.241536617,53.8036,-4.640306,1.889868,-0.0557684,-0.3707902,1.097177,-3.139133,33.06979,16.45232,882.2964
10.261549950,28.31669,-5.585253,0.7926916,0.08077468,-0.402784,0.9678481,-3.139133,33.06979,16.45232,882.2947
10.281562328,44.87703,-11.37306,0.3050579,-0.04435034,-0.3825857,0.9555615,-6.364173,30.99973,12.68605,882.2947
10.301575184,59.09798,-3.813477,-0.2435301,0.02148298,-0.1383738,0.9056055,-6.364173,30.99973,12.68605,882.298
10.321588039,60.3908,-10.25093,0.06124099,0.07139203,-0.2454462,0.9357881,-8.868048,29.64304,11.04288,882.298
10.341600895,47.40109,-6.530201,-0.4263927,-0.07177173,-0.3273368,0.9588352,-8.868048,29.64304,11.04288,882.2947
10.361613274,64.63861,-20.82253,2.49941,-0.02127037,-0.09852957,1.073447,-11.38828,29.32205,10.64632,882.2947
10.381626606,7.200723,27.84227,1.036508,-0.2556468,0.02711263,0.7887463,-11.38828,29.32205,10.64632,882.2961
10.401638985,82.43019,-10.07375,-0.9140264,-0.2366544,-0.2140446,0.6066048,-11.38828,29.32205,10.64632,882.2961
10.421652317,36.6892,-10.90058,-0.06066744,-0.07583159,-0.40688,0.728202,-13.55552,30.09165,11.43761,882.2961
10.441664696,86.00082,-5.526194,1.036508,-0.06426267,0.1066362,1.324787,-13.55552,30.09165,11.43761,882.2961
10.461677551,-10.5293,-13.67637,-0.792118,-0.04366217,-0.1705998,1.048144,-13.18788,30.0837,11.81406,882.2944
10.481690407,26.34669,-19.28699,-1.096889,0.1122331,-0.2134207,1.09512,-13.18788,30.0837,11.81406,882.2944
10.501703262,41.92202,3.391749,0.9146,-0.04360822,-0.06629786,0.9267806,-13.18788,30.0837,11.81406,882.2976
10.521715641,34.53451,-13.02672,-0.2435301,0.1163174,-0.2369031,0.9640144,-10.6537,30.04493,10.21943,882.2976
10.541728973,21.11387,-5.585253,0.4269663,-0.05333175,-0.0780612,0.8913867,-10.6537,30.04493,10.21943,882.2976
10.561741352,23.82262,-1.923581,-0.3044843,0.01744303,-0.1518349,1.025777,-11.01369,30.42796,7.729308,882.2976
10.581754684,17.91261,-12.79048,-1.40166,-0.05477154,-0.1431462,0.9159653,-11.01369,30.42796,7.729308,882.2976
10.601767063,27.57794,3.450808,-0.5483012,-0.01810728,-0.1623729,0.923646,-11.01369,30.42796,7.729308,882.2976
10.621779919,-4.003668,-29.20894,-0.6702096,-0.1297857,-0.3186024,0.82636,-10.99361,28.96364,6.54378,882.2976
10.641792297,-12.4993,-28.67741,0.06124099,-0.05190744,-0.1619817,0.9878018,-10.99361,28.96364,6.54378,882.3009
10.661805630,-7.820548,-2.632292,1.707005,-0.1564915,-0.1208145,0.9491794,-12.42005,30.46053,5.726487,882.3009
10.681818008,-6.404608,-3.872536,0.7926916,0.1056834,-0.1865282,1.24219,-12.42005,30.46053,5.726487,882.2992
10.701831341,-19.51744,5.458822,0.6098289,0.01974336,-0.3245515,0.8571964,-12.42005,30.46053,5.726487,882.2992
10.721843719,11.44854,18.45185,-2.255019,0.006618315,-0.06694915,0.6100035,-12.42202,30.45914,6.099656,882.2992
10.741857052,-44.63497,-26.25598,-3.778875,-0.178763,0.1823799,1.381112,-12.42202,30.45914,6.099656,882.2992
10.761869907,-42.29559,31.68112,1.828913,-0.716338,0.6222755,1.843063,-11.37904,30.43754,6.917492,882.3009
10.781882286,149.8412,76.80237,1.158417,0.06853129,-0.4048516,0.5745394,-11.37904,30.43754,6.917492,882.3009
10.801895618,6.215721,60.02954,9.509145,-0.1615829,-0.4665743,-0.2895047,-11.37904,30.43754,6.917492,882.3009
10.821907997,56.14298,38.35481,2.987043,-0.017239,-0.03748738,0.9261323,-13.5571,29.35124,13.05276,882.3009
10.841921329,54.7886,38.17763,2.560364,-0.2216838,-0.160355,0.7215924,-13.5571,29.35124,13.05276,882.306
10.861933708,57.00486,21.46387,3.23086,-0.01902569,-0.2158433,0.9120889,-15.41456,29.33253,26.53318,882.306
10.881946564,63.09954,-3.104766,5.181395,-0.1602493,-0.2337191,0.485893,-15.41456,29.33253,26.53318,882.306
10.901958942,61.49892,-5.408076,2.377501,-0.1732229,-0.01786309,0.9712387,-15.41456,29.33253,26.53318,882.306
10.919470310,62.66861,17.8022,2.560364,-0.1688304,0.0001287257,0.963671,2.33215,27.3247,5.414408,882.306
10.939483643,9.232287,3.037393,1.036508,-0.03156127,0.2491827,1.67584,2.33215,27.3247,5.414408,882.306
10.959496021,84.27707,43.31578,1.707005,-0.2836396,-0.2836385,0.7116892,-2.246265,22.42928,-5.275577,882.3042
10.979508877,86.73957,292.3685,14.44644,0.1176131,0.2647415,0.7459404,-2.246265,22.42928,-5.275577,882.3042
10.999521732,32.50294,454.9586,-5.851318,1.333461,0.4150096,2.040754,-2.246265,22.42928,-5.275577,882.3058
11.019534588,-48.39029,781.6742,-18.46884,0.198906,0.001721812,-0.02994187,-3.236168,20.70193,-13.00167,882.3058
11.039546967,-25.48901,981.5306,6.339525,0.6610046,-0.0842921,0.2596368,-3.236168,20.70193,-13.00167,882.3058
11.059560299,-15.51587,1198.514,2.07273,0.2637595,0.08596341,-1.208813,-6.075155,20.79324,-23.7249,882.3058
11.079572678,-24.93495,1282.674,-4.1446,0.04647318,0.03242135,-2.180969,-6.075155,20.79324,-23.7249,882.304
11.099586010,-22.34932,1269.09,-10.97147,0.2787181,-0.04951426,-2.608988,-6.075155,20.79324,-23.7249,882.304
11.119598389,-6.281483,1106.972,-10.72765,0.049176,-0.1762894,-3.081281,2.283543,21.41515,-33.04055,882.304
11.139611244,23.39168,701.9442,1.889868,-0.6637159,-0.0807527,-4.989,2.283543,21.41515,-33.04055,882.304
11.159624577,-127.1904,65.10864,2.49941,0.01354079,-0.5855656,-1.991491,22.21773,3.188687,-31.29439,882.3073
11.179636955,-109.6451,154.9377,-4.327463,-0.2736753,0.275616,-1.100641,22.21773,3.188687,-31.29439,882.3073
11.199650288,-98.81005,222.029,7.863381,0.2060396,-0.1202009,-1.435825,22.21773,3.188687,-31.29439,882.3055
11.219662666,-33.36902,75.26682,6.766204,-0.5626867,0.7924387,-0.0962172,2.393286,11.38947,-35.92766,882.3055
11.239675522,-24.87338,3.982341,0.4879205,-0.2355665,0.2209872,-1.048802,2.393286,11.38947,-35.92766,882.3037
11.259688377,-16.624,-1.155811,1.158417,-0.1206487,0.08610826,-1.001746,4.447833,19.59614,-31.40895,882.3037
11.279701233,-6.897109,-28.85459,1.097463,-0.07613724,0.1673739,-1.089832,4.447833,19.59614,-31.40895,882.3037
11.299713612,22.83762,40.06753,6.034754,-0.05592447,0.2105702,-0.8531705,4.447833,19.59614,-31.40895,882.3037
11.319726944,6.092596,-10.30999,-0.8530722,-0.1930254,0.1702263,-1.028321,0.4178553,17.80059,-23.23958,882.3037
11.339739323,6.954472,-23.1849,-2.803607,-0.1243387,0.107762,-0.7890071,0.4178553,17.80059,-23.23958,882.3037
11.359752655,5.292283,9.002376,1.402234,-0.08186614,0.1385433,-1.184778,0.7296206,18.86192,-14.21517,882.3053
11.379765034,23.207,-1.628285,0.9755543,-0.06105663,0.1097741,-0.9878432,0.7296206,18.86192,-14.21517,882.3053
11.399777889,-7.020234,-1.037693,-0.2435301,-0.08663931,0.1476944,-0.873108,0.7296206,18.86192,-14.21517,882.307
11.419790268,4.245718,-4.817483,-2.011203,-0.05040574,0.2075205,-0.9720251,3.573406,21.2999,-8.896349,882.307
11.439803600,4.799782,12.30969,0.9146,-0.08376535,0.1166236,-1.216368,3.573406,21.2999,-8.896349,882.3053
11.459815979,20.5598,-0.4471008,-0.1216217,-0.08306646,0.08782941,-0.9586211,5.699954,23.02732,-6.446973,882.3053
11.479829311,20.37512,6.226592,-0.4263927,-0.07748725,0.1532414,-0.7628847,5.699954,23.02732,-6.446973,882.3086
11.499841690,-17.30119,-7.41609,-0.6702096,-0.1373196,0.1346221,-0.9917315,6.726182,24.78045,-5.624515,882.3086
11.519855022,10.21729,-9.365044,-0.3654385,-0.02517477,0.02429716,-1.09811,6.726182,24.78045,-5.624515,882.3086
11.539867401,24.93075,17.62502,1.767959,-0.1039119,0.0850884,-1.102191,6.726182,24.78045,-5.624515,882.3086
11.559880257,-20.564,-22.12184,-2.681699,-0.05841867,0.2810016,-0.8612908,7.822327,25.8607,-5.176431,882.3069
11.579893589,-16.43931,17.09349,3.23086,-0.02895353,0.1926512,-0.9160426,7.822327,25.8607,-5.176431,882.3069
11.599905968,6.89291,-3.459121,-0.8530722,-0.1178755,-0.02396806,-1.202175,8.915913,27.24718,-4.789745,882.3086
11.619919300,71.65674,26.89732,2.621318,-0.0745704,0.1338589,-0.735499,8.915913,27.24718,-4.789745,882.3086
11.639931679,-65.62782,-17.63334,-2.255019,0.0004744683,0.2286113,-1.029188,8.915913,27.24718,-4.789745,882.3069
11.659944534,38.84389,21.05046,3.840402,-0.08024133,0.119523,-0.8902311,8.917086,26.87837,-4.355338,882.3069
11.679956913,-12.25305,-17.3971,-0.9749807,-0.02818705,0.04233493,-1.043378,8.917086,26.87837,-4.355338,882.3098
11.699970245,-10.65243,9.002376,0.6098289,0.05997764,0.1489869,-0.8649269,9.604902,25.08698,-3.110045,882.3098
11.719982624,13.04917,-2.159818,-0.2435301,-0.02524242,0.1437892,-1.127074,9.604902,25.08698,-3.110045,882.3098
11.739995956,4.184156,5.517881,-0.1825759,0.02887427,0.05880788,-0.9503121,9.604902,25.08698,-3.110045,882.3098
11.760008335,-18.28619,7.584954,1.402234,-0.0313558,0.1998707,-0.9565716,7.817283,25.48748,-3.560321,882.3081
11.780021667,19.39011,-0.2108639,1.585096,0.01968075,0.1159284,-1.070645,7.817283,25.48748,-3.560321,882.3081
11.800034046,-19.14806,8.175546,0.9146,0.09692734,0.1163203,-1.090217,8.165182,27.99141,-3.92367,882.3081
11.820046902,-21.97994,-0.1518047,-1.035935,-0.1318707,0.1704875,-1.079345,8.165182,27.99141,-3.92367,882.3081
11.840059280,15.94261,-5.526194,-0.6092554,-0.0507407,0.07773133,-1.008851,8.165182,27.99141,-3.92367,882.3114
11.860072613,20.31355,7.644013,1.219371,-0.03420199,0.1259702,-0.9765167,8.146476,29.76474,-3.545877,882.3114
11.880084991,4.861344,14.31771,0.4269663,-0.01524015,0.1810424,-0.9315571,8.146476,29.76474,-3.545877,882.3051
11.900098324,21.48324,2.623979,0.2441037,-0.07519071,0.1261549,-1.033646,8.877843,30.79338,-3.90977,882.3051
11.920111179,-8.620862,-2.396055,0.4879205,-0.03077782,0.1958857,-1.029553,8.877843,30.79338,-3.90977,882.3081
11.940123558,31.08701,-3.400062,-2.864562,-0.07173743,-0.01657702,-0.9575193,8.877843,30.79338,-3.90977,882.3081
11.960136890,-30.84495,-4.404069,-3.230287,-0.02840432,0.08482023,-0.8893965,8.504769,31.16712,-3.912096,882.3081
11.980149269,-28.1362,28.6691,4.38899,-0.09267652,0.1356399,-1.133624,8.504769,31.16712,-3.912096,882.3081
12.000162601,14.40354,-20.5863,-2.011203,-0.03252282,0.1116523,-1.147169,7.022484,32.29955,-5.166256,882.3098
12.020174980,22.09887,31.68112,2.316547,-0.1820291,0.007384694,-1.117563,7.022484,32.29955,-5.166256,882.3098
12.040188313,2.275716,19.1015,1.524142,-0.2186912,0.1309738,-1.202644,7.022484,32.29955,-5.166256,882.3115
12.060200691,27.82419,-15.27097,-3.169333,-0.04496137,0.2196939,-0.6230998,7.382278,33.33334,-5.160263,882.3115
12.080213547,37.79733,-18.9917,0.6707832,-0.1505705,0.03024917,-0.8699248,7.382278,33.33334,-5.160263,882.3086
12.100225925,-54.48498,17.32973,-0.4263927,0.09415653,0.02494508,-0.7460392,7.749213,34.06417,-5.9636,882.3086
12.120239258,2.398841,32.27171,2.011776,-0.1564235,0.1112682,-0.9388399,7.749213,34.06417,-5.9636,882.3086
12.140251637,-24.75026,-21.82654,-1.40166,-0.02084676,0.2089512,-0.7559726,7.749213,34.06417,-5.9636,882.3086
12.160264969,-48.57497,0.7931429,0.9755543,-0.02662609,0.10922,-1.172294,7.740321,34.79715,-5.588517,882.3086
12.180277348,-9.236487,-2.336996,-0.4873469,-0.02952804,0.0004345791,-1.119578,7.740321,34.79715,-5.588517,882.3115
12.200290203,-28.44401,3.33269,-1.82834,-0.06408046,0.08502017,-1.307879,7.36436,35.47688,-5.590046,882.3115
12.220303059,28.93231,15.55795,1.950822,-0.03340442,0.1071661,-1.225474,7.36436,35.47688,-5.590046,882.3115
12.240315914,36.07358,14.67206,1.097463,-0.1693852,0.07354507,-1.11118,7.36436,35.47688,-5.590046,882.3115
12.260329247,11.87948,-26.96469,-2.803607,-0.04649664,0.1769614,-0.949077,6.968788,37.9909,-5.151428,882.3081
12.280341625,48.13984,13.13652,2.133684,-0.1008652,0.04962369,-0.7580157,6.968788,37.9909,-5.151428,882.3081
12.300354958,17.54324,-19.46417,-0.2435301,-0.2200763,0.06591335,-0.808966,8.45298,37.59911,-5.574617,882.3097
12.320367336,-83.54253,4.927289,-2.255019,0.1312602,0.474296,-0.6199784,8.45298,37.59911,-5.574617,882.3097
12.340380192,17.54324,21.16858,0.6098289,-0.1363712,0.04428524,-1.317129,8.45298,37.59911,-5.574617,882.3097
12.360392571,71.04111,-33.99274,-1.096889,-0.07782763,-0.06925642,-0.7280117,9.492895,39.05392,-6.805386,882.3097
12.380405903,-113.9544,11.7191,-2.072157,0.03617366,0.3045952,-0.6854407,9.492895,39.05392,-6.805386,882.3114
12.400418282,7.200723,14.67206,1.767959,-0.1705137,0.1775074,-1.473624,10.59387,40.076,-7.165995,882.3114
12.420431614,3.506968,-6.707379,0.6098289,-0.08936365,-0.03419969,-1.334064,10.59387,40.076,-7.165995,882.3114
12.440443993,57.80517,9.002376,1.036508,0.01784521,-0.05848711,-1.046007,11.25704,41.84032,-7.590716,882.3114
12.460456848,25.05387,27.90133,0.06124099,-0.06619672,0.2017868,-0.8397469,11.25704,41.84032,-7.590716,882.3129
12.480469704,16.80449,-20.52724,-0.9749807,-0.04102769,0.1564947,-1.013001,11.25704,41.84032,-7.590716,882.3129
12.500482559,28.07044,-6.766438,0.3050579,-0.01202068,0.02741909,-0.6487488,9.850015,40.8251,-7.606012,882.3129
12.520495891,-28.50558,11.24663,0.2441037,-0.03510009,0.06276771,-0.9982998,9.850015,40.8251,-7.606012,882.3129
12.540508270,21.72949,25.4799,0.6707832,-0.1461322,0.0200331,-0.8960843,6.954741,40.87646,-7.63173,882.3111
12.560521603,-22.65713,-7.179852,-0.5483012,-0.01337698,0.1141726,-0.8050464,6.954741,40.87646,-7.63173,882.3111
12.580533981,-14.59243,12.84122,-0.3654385,-0.08880221,0.0570651,-1.046337,6.954741,40.87646,-7.63173,882.3111
12.600546837,-4.373043,4.159519,0.7926916,-0.049111,0.0304627,-1.113591,6.275623,41.25706,-8.009962,882.3111
12.620559215,-5.665857,3.687045,-0.6092554,0.0006980508,0.1055391,-1.130211,6.275623,41.25706,-8.009962,882.3143
12.640572548,8.431973,-0.6242785,0.2441037,0.04867109,0.05425704,-1.15658,6.581667,41.2502,-7.634057,882.3143
12.660584927,29.67107,2.919275,-1.096889,-0.04526636,0.03056036,-1.05802,6.581667,41.2502,-7.634057,882.3143
12.680598259,26.28512,-4.935602,-0.4263927,-0.03427313,0.07265732,-0.877437,6.581667,41.2502,-7.634057,882.3143
12.700610638,-0.00209967,2.801157,0.0002867747,-0.02520849,0.1559734,-0.7491777,6.961669,40.1421,-7.633643,882.3126
12.720623493,3.076029,-0.5061601,1.097463,0.0107889,0.08346774,-0.9670712,6.961669,40.1421,-7.633643,882.3126
12.740636349,-11.14493,-0.8605154,-0.792118,0.05378139,0.05702414,-0.9323767,7.341094,39.09518,-7.63307,882.3109
12.760649204,-10.59086,5.813177,-1.096889,-0.01607616,0.05563374,-0.9611019,7.341094,39.09518,-7.63307,882.3109
12.780661583,-4.311481,7.88025,0.4269663,0.02054831,0.08062662,-0.9516057,7.341094,39.09518,-7.63307,882.3109
12.800674915,-4.06523,3.746104,0.4269663,0.07933984,0.06573231,-1.060253,8.459525,37.60376,-6.818514,882.3109
12.820688248,-0.9255384,2.269624,-0.3654385,0.03581079,0.09028744,-1.052934,8.459525,37.60376,-6.818514,882.3091
12.840700626,1.721653,3.155512,-0.8530722,0.01916668,0.08197603,-1.024549,8.84588,35.82248,-6.819855,882.3091
12.860713482,11.5101,-2.159818,-0.3654385,-0.0266207,0.04950721,-1.133656,8.84588,35.82248,-6.819855,882.3124
12.880725861,21.17543,0.7340837,1.036508,0.08471618,0.02547171,-1.0311,8.84588,35.82248,-6.819855,882.3124
12.900739193,7.508535,-1.332989,0.1831494,0.01228394,0.1028588,-1.005555,11.31229,35.04114,-5.929152,882.3106
12.920751572,4.676657,-1.923581,-1.096889,0.06549433,0.01633273,-0.8882321,11.31229,35.04114,-5.929152,882.3106
12.940764904,5.661658,3.391749,0.4269663,0.03852855,0.07841886,-0.8617108,12.08036,32.21458,-6.365284,882.3089
12.960777283,-21.24119,10.06544,-0.9749807,0.09139905,0.07569357,-0.931626,12.08036,32.21458,-6.365284,882.3089
12.980790138,3.753218,8.175546,1.219371,-0.02611757,0.03347426,-1.13427,12.08036,32.21458,-6.365284,882.3072
13.000802994,-5.72742,5.57694,-0.5483012,0.08086,0.0321834,-1.081783,12.83632,30.42674,-6.363341,882.3072
13.020815849,8.431973,10.59697,0.06124099,-0.06380092,0.03235665,-1.091879,12.83632,30.42674,-6.363341,882.3072
13.040828228,8.493536,-3.222884,-1.523569,0.026301,0.08710021,-0.8607094,13.50917,31.82829,-7.970722,882.3072
13.060841560,2.460404,-0.8605154,0.7317374,0.0202006,0.07123621,-1.064733,13.50917,31.82829,-7.970722,882.3087
13.080854893,14.64979,-9.365044,0.2441037,0.08079461,0.04148277,-1.032912,13.50917,31.82829,-7.970722,882.3087
13.100867271,11.5101,11.7191,0.6707832,-0.02534305,0.05410434,-0.9766022,16.01738,34.29699,-9.123453,882.3087
13.120880127,0.6135262,-9.128807,-1.584523,0.08300618,0.06700914,-0.8539418,16.01738,34.29699,-9.123453,882.3087
13.140892506,7.508535,4.927289,0.4879205,0.02498941,0.04273842,-0.9601191,17.50255,34.95323,-11.59636,882.3069
13.160905838,-3.511167,14.67206,0.6707832,0.006349018,0.04999799,-0.9079387,17.50255,34.95323,-11.59636,882.3069
13.180918217,-12.31462,8.352724,-0.1216217,0.03529818,0.05002292,-1.003508,17.50255,34.95323,-11.59636,882.3051
13.200931549,1.844778,7.407776,0.3050579,0.07156774,0.06077961,-1.097517,19.65097,36.38813,-12.75509,882.3051
13.220943928,9.29385,6.876243,0.5488747,0.06720104,0.05780572,-1.122677,19.65097,36.38813,-12.75509,882.3051
13.240956783,12.98761,4.80917,0.3660121,-0.01892492,0.006492648,-0.9967849,22.48693,36.33949,-13.16528,882.3051
13.260969639,6.831347,-9.483162,-1.523569,0.02628938,0.08080334,-0.8462682,22.48693,36.33949,-13.16528,882.3051
13.280982494,8.001036,1.738091,-0.6092554,0.01956686,0.06606337,-0.937719,22.48693,36.33949,-13.16528,882.3051
13.300995827,-0.24835,2.446801,0.06124099,0.00696279,0.03480659,-1.003236,24.65378,36.3089,-15.19856,882.3034
13.321008205,7.939473,4.0414,-0.3044843,0.07483968,0.04155595,-0.9565973,24.65378,36.3089,-15.19856,882.3034
13.341021538,3.630093,2.210564,-1.40166,0.07438938,0.05364383,-0.9980463,27.58661,34.12794,-18.47475,882.3017
13.361033917,-4.188355,13.49088,1.158417,0.06265561,0.03076975,-0.9784634,27.58661,34.12794,-18.47475,882.3017
13.381046772,-3.264917,16.73913,-0.06066744,0.06072867,0.009367912,-0.9868593,31.27101,30.83371,-22.12041,882.305
13.401059151,-6.650859,9.770145,-1.340706,0.0728847,0.08571839,-0.988606,31.27101,30.83371,-22.12041,882.305
13.421072483,-4.803981,10.24262,-0.9749807,0.05157416,0.02712395,-1.111866,31.27101,30.83371,-22.12041,882.3017
13.441084862,-1.110226,3.687045,-1.584523,0.05423634,0.0672601,-0.9110336,34.90711,27.98126,-29.06184,882.3017
13.461098194,-3.81898,15.79418,0.4269663,0.1031181,0.05101384,-0.9042577,34.90711,27.98126,-29.06184,882.3017
13.481110573,-19.45588,18.62903,0.7926916,0.2542953,0.0594227,-1.038522,37.53183,22.95496,-38.87927,882.3017
13.501123428,12.0026,48.57206,0.3660121,0.1053184,0.03277737,-1.09958,37.53183,22.95496,-38.87927,882.305
13.521136284,11.87948,54.47798,2.621318,0.1097215,0.07802846,-0.7204308,37.53183,22.95496,-38.87927,882.305
13.541149139,26.90075,146.7285,2.621318,0.1645313,0.02087692,-1.153126,35.07232,21.26011,-48.29775,882.305
13.561162472,30.28669,127.1208,-3.169333,0.320316,0.01022294,-1.03535,35.07232,21.26011,-48.29775,882.305
13.581174850,34.34982,275.9501,-0.5483012,0.6063807,0.04955867,-0.7679682,31.52013,23.49444,-56.09827,882.305
13.601188183,-42.66497,279.6118,-5.546547,0.2718087,-0.01911233,-1.327539,31.52013,23.49444,-56.09827,882.305
13.621200561,-26.1662,390.2297,-2.437882,0.5462666,0.01758862,-1.163118,31.52013,23.49444,-56.09827,882.3001
13.641213417,-20.62556,459.7424,2.316547,0.788093,0.01999794,-1.072029,32.86772,32.4148,-58.92337,882.3001
13.661225796,-14.34618,515.1399,4.510899,1.189426,0.01636368,-0.7061015,32.86772,32.4148,-58.92337,882.3017
13.681239128,-9.421175,587.1331,5.54712,1.187096,0.06281742,-0.8366476,35.28859,39.81169,-52.35102,882.3017
13.701251507,-10.28305,655.819,2.377501,1.296875,0.1262566,-0.7193618,35.28859,39.81169,-52.35102,882.3017
13.721264839,-12.12993,693.735,-1.279752,1.472304,0.04812504,-0.6330042,35.28859,39.81169,-52.35102,882.3017
13.741277218,-16.37775,726.2766,-1.767385,1.383251,0.03222542,-0.5372639,33.05783,37.64068,-34.33924,882.305
13.761290073,-15.70056,725.3317,-3.474104,1.212551,-0.01175748,-0.4009369,33.05783,37.64068,-34.33924,882.305
13.781303406,-12.86868,723.0875,-6.034181,1.135485,0.06151173,-0.172532,16.13674,32.22546,-27.97408,882.305
13.801315784,-8.313049,671.2925,-6.034181,1.03797,0.1088506,0.00776842,16.13674,32.22546,-27.97408,882.305
13.821329117,6.092596,603.4335,-8.716166,0.7861239,0.08288784,0.1411021,16.13674,32.22546,-27.97408,882.3032
13.841341495,-91.05316,471.7905,-10.6667,0.2363192,0.01237805,0.1504603,7.450723,39.17299,-28.46835,882.3032
13.861354828,-112.2307,216.4774,4.998532,0.1670993,0.337106,0.1746817,7.450723,39.17299,-28.46835,882.3047
13.881367207,-39.70996,146.7875,6.583342,0.1229024,-0.05267977,0.6341438,-3.295979,39.01841,-34.287,882.3047
13.901380062,-9.359612,101.6072,2.194638,0.05063085,-0.04246818,0.5716894,-3.295979,39.01841,-34.287,882.3047
13.921392441,-9.790551,44.31979,-4.632234,0.1792719,-0.0214096,0.8891732,-3.295979,39.01841,-34.287,882.3047
13.941405773,-46.85122,35.28373,0.1221952,-0.08062581,-0.07092922,1.23679,-20.90969,42.53761,-40.96566,882.3047
13.961418152,-69.99876,-24.89762,-0.9140264,0.02425725,-0.01196412,0.9486916,-20.90969,42.53761,-40.96566,882.3047
13.981431484,-42.17247,-20.35006,0.6707832,-0.0826235,-0.04525112,0.838911,-41.84708,40.40513,-26.41735,882.3047
14.001444340,-84.21972,-30.74448,3.413723,-0.02301736,0.02557224,1.222303,-41.84708,40.40513,-26.41735,882.3047
14.021456718,-66.92063,8.057427,3.352769,-0.04820843,-0.2370421,0.8060237,-41.84708,40.40513,-26.41735,882.3047
14.041470051,-70.73751,-1.332989,2.438455,-0.0277646,-0.151399,0.8154904,-41.87489,32.80772,-7.654111,882.3079
14.061482430,-61.62624,-24.24797,1.280325,0.5722002,-0.8542492,1.105206,-41.87489,32.80772,-7.654111,882.3079
14.081495762,-33.18433,-20.40912,2.255593,-0.142727,-0.1567539,0.9078584,-33.93999,27.23701,4.281668,882.3079
14.101508141,-67.84407,0.08443219,2.804181,0.02372649,-0.294343,1.604353,-33.93999,27.23701,4.281668,882.3079
14.121521473,-56.02405,-18.6964,2.926089,-0.0573451,-0.3324094,0.7477158,-33.93999,27.23701,4.281668,882.3098
14.141533852,-93.45411,-18.34205,4.632807,-0.04643536,-0.2164313,0.9458196,-27.48192,24.28118,11.29761,882.3098
14.161546707,-45.00434,-48.22601,1.524142,0.05926638,-0.3669761,0.9444074,-27.48192,24.28118,11.29761,882.3079
14.181560040,-92.22285,-19.52323,4.206127,0.005750718,-0.1529136,0.9943308,-22.8014,22.7187,14.19634,882.3079
14.201572418,-89.82191,-35.41016,3.108952,0.1225662,-0.4654665,0.8031959,-22.8014,22.7187,14.19634,882.3112
14.221585751,-81.08002,-33.81556,3.962311,0.1740227,-0.3730305,1.035528,-22.8014,22.7187,14.19634,882.3112
14.241598129,-106.8747,0.08443219,5.425212,0.1574059,-0.4071009,1.059351,-20.34374,21.99276,16.64207,882.3095
14.261610985,-87.35941,7.584954,-2.864562,0.1848145,-0.2006059,1.293038,-20.34374,21.99276,16.64207,882.3095
14.281623364,43.09171,-23.00772,15.4217,0.08946114,-0.5979214,0.3725112,-18.18117,20.11093,18.70887,882.3078
14.301636696,-68.52126,30.67711,3.596586,0.4376757,-0.4737003,1.343713,-18.18117,20.11093,18.70887,882.3078
14.321649075,-101.9497,188.0699,11.27682,0.2902786,-0.5398775,0.7992188,-18.18117,20.11093,18.70887,882.306
14.341662407,22.03731,106.332,15.72647,-0.3724083,-0.5931517,0.3624664,-15.93905,17.9327,17.91446,882.306
14.361674786,30.84076,-36.00076,7.436701,-0.01909069,-0.2584842,0.9982129,-15.93905,17.9327,17.91446,882.3075
14.381688118,17.35855,21.99541,3.901356,-0.01276828,-0.5249962,0.8022961,-15.87703,13.66421,13.79843,882.3075
14.401700974,15.32698,16.32572,3.169906,-0.08267734,-0.4942888,0.7941273,-15.87703,13.66421,13.79843,882.3058
14.421713352,-4.311481,-10.90058,0.9146,-0.0352785,-0.4522733,0.7728776,-20.56759,13.74099,15.43611,882.3058
14.441726685,3.199155,-13.97166,-1.584523,0.01534466,-0.4454447,0.9445918,-20.56759,13.74099,15.43611,882.3075
14.461739063,2.214153,-21.41313,0.6098289,0.08980986,-0.5889292,0.9006302,-20.56759,13.74099,15.43611,882.3075
14.481752396,-15.70056,-12.25895,-2.864562,0.03537634,-0.4375607,0.9452004,-22.48267,19.51727,17.86028,882.3058
14.501764774,-12.68399,-18.93264,-1.523569,0.04830369,-0.3858087,0.7210199,-22.48267,19.51727,17.86028,882.3058
14.521777630,-18.22462,-20.05476,0.4879205,0.009713781,-0.4058574,1.132351,-22.5437,24.83378,19.92658,882.3073
14.541790008,-46.29716,5.872236,-0.8530722,-0.05479015,-0.2601103,1.01645,-22.5437,24.83378,19.92658,882.3073
14.561803341,-20.564,26.54296,4.81567,0.1827113,-0.6127404,0.8862188,-22.5437,24.83378,19.92658,882.3073
14.581816673,-11.57587,52.52902,4.81567,0.03981996,-0.5939823,0.6047724,-25.45325,30.62127,24.02126,882.3073
14.601829052,14.09573,49.04453,7.13193,-0.054449,-0.4352597,0.8531578,-25.45325,30.62127,24.02126,882.3055
14.621841907,33.42638,32.15359,4.754715,0.02541591,-0.464669,0.7067708,-31.02963,40.27945,36.31273,882.3055
14.641854763,11.69479,30.2637,3.23086,-0.1832548,-0.5473844,0.7416921,-31.02963,40.27945,36.31273,882.3055
14.661867618,23.26856,7.171539,-0.7311638,-0.04218575,-0.5269893,0.881905,-31.02963,40.27945,36.31273,882.3055
14.681879997,10.70979,-0.3289824,-0.6702096,-0.2018716,-0.4328749,0.6962056,-17.50699,53.97474,40.51322,882.3068
14.701893330,16.55824,-13.97166,0.7317374,0.007203205,-0.5369441,0.8684438,-17.50699,53.97474,40.51322,882.3068
14.721905708,-7.266485,-21.8856,-1.40166,-0.01305415,-0.3935991,0.95025,-1.150065,45.91213,25.088,882.3086
14.739417553,9.5401,-18.93264,-0.3044843,-0.006896604,-0.4613822,0.7506643,-1.150065,45.91213,25.088,882.3086
14.759429932,-14.16149,-27.02375,-3.413149,0.07346835,-0.6067287,1.094162,-1.150065,45.91213,25.088,882.3068
14.779443264,-5.912107,1.147498,-2.255019,-0.04907991,-0.5759935,0.9611921,-5.337378,35.97363,19.30162,882.3068
14.799455643,-10.46774,11.83722,0.5488747,-0.0008830557,-0.5348221,0.6776071,-5.337378,35.97363,19.30162,882.3051
14.819468498,-20.68713,30.97241,6.583342,0.03760707,-0.656796,0.869475,-11.08287,31.05654,19.67248,882.3051
14.839481354,23.39168,17.8022,4.145173,0.02942992,-0.4559434,1.027643,-11.08287,31.05654,19.67248,882.3051
14.859494209,41.7989,46.85934,3.535631,-0.03132659,-0.5980149,0.4272224,-11.08287,31.05654,19.67248,882.3051
14.879506588,46.97015,50.69819,7.558609,0.06284654,-0.3977246,0.831598,-16.83805,31.87884,23.293,882.3083
14.899519920,65.13111,63.51404,3.962311,0.1166339,-0.1482647,1.461874,-16.83805,31.87884,23.293,882.3083
14.919532776,55.34266,15.20359,0.1221952,0.06224591,-0.4043923,0.9315455,-16.54897,36.49727,30.27423,882.3065
14.939545631,79.35207,16.79819,2.194638,-0.1805028,-0.6083203,0.9392724,-16.54897,36.49727,30.27423,882.3065
14.959558487,64.8233,-21.11783,0.4879205,0.02697814,-0.50749,0.656177,-16.54897,36.49727,30.27423,882.3065
14.979570866,84.33863,8.057427,4.145173,-0.01448952,-0.3912161,0.9222448,-3.198261,37.03229,20.56754,882.3065
14.999584198,62.91486,-12.84954,0.2441037,0.01871034,-0.3531316,0.9250757,-3.198261,37.03229,20.56754,882.3048
15.019596577,20.19043,-20.64536,-1.096889,0.08880599,-0.3656111,0.7614073,-4.590411,32.06797,13.14015,882.3048
15.039609909,47.09328,-1.392048,0.3660121,0.1140881,-0.3672593,0.8759677,-4.590411,32.06797,13.14015,882.3048
15.059622288,56.2661,-18.93264,1.158417,0.0229307,-0.3670647,0.6713381,-4.590411,32.06797,13.14015,882.3048
15.079635143,72.21081,-9.896577,1.158417,0.1009013,-0.3658858,0.8667603,-8.871512,30.01022,11.04383,882.3048
15.099648476,62.48392,3.155512,-0.06066744,-0.1947598,-0.3111356,1.210302,-8.871512,30.01022,11.04383,882.3048
15.119660854,43.46109,-72.91277,1.158417,0.640596,0.09590109,1.690119,-11.39521,30.05642,10.64823,882.3048
15.139674187,-68.02876,-4.226891,-0.06066744,0.1947068,-0.4522249,0.9600512,-11.39521,30.05642,10.64823,882.3048
15.159686565,49.06328,-27.6734,-1.157843,0.04610309,-0.01612877,0.6622363,-11.39521,30.05642,10.64823,882.3048
15.179699421,131.0031,-7.711386,1.646051,-0.02927143,-0.4548345,0.6540284,-13.17898,29.35072,11.43898,882.3048
15.199712277,38.84389,-19.75947,0.9146,-0.2098048,-0.02145884,1.325705,-13.17898,29.35072,11.43898,882.3048
15.219725132,-16.25462,-29.44518,-1.950248,0.1566994,-0.2597672,1.137868,-12.07133,29.69986,11.01442,882.3048
15.239738464,-0.3099126,4.927289,1.34128,-0.0674024,-0.2369907,0.918532,-12.07133,29.69986,11.01442,882.303
15.259750843,38.53608,-7.179852,1.585096,-0.1283437,-0.1326507,0.7124401,-12.07133,29.69986,11.01442,882.303
15.279763699,28.31669,5.045407,0.4879205,0.01250679,-0.2226757,1.118417,-11.69588,30.43673,8.594018,882.3064
15.299776554,19.0823,-25.54727,-0.792118,0.003243889,-0.1397469,1.038396,-11.69588,30.43673,8.594018,882.3064
15.319789410,9.170725,-12.31801,-0.4873469,0.1057656,-0.04245499,1.068013,-11.37015,29.70457,6.54241,882.3064
15.339801788,13.78792,-17.33804,-2.742653,-0.08412544,-0.1694846,0.9591391,-11.37015,29.70457,6.54241,882.3064
15.359815121,-29.79839,-28.61835,1.950822,0.07841007,-0.2795934,0.8113661,-11.37015,29.70457,6.54241,882.2998
15.379827499,10.89448,-26.13786,-1.279752,0.1334108,-0.007103759,1.224435,-12.4143,30.09497,5.290167,882.2998
15.399840832,-54.60811,-28.08682,0.0002867747,0.5070138,-0.4431514,1.377509,-12.4143,30.09497,5.290167,882.2998
15.419853687,-3.880543,14.79018,1.036508,-0.1972668,-0.2417485,0.7982899,-11.68626,30.81321,6.10718,882.2998
15.439866066,-152.1232,-35.52828,0.6707832,-0.02090428,0.0876201,1.458583,-11.68626,30.81321,6.10718,882.2998
15.459879398,-105.7666,112.0607,10.97205,-0.302357,-0.5266328,-0.6517944,-11.68626,30.81321,6.10718,882.2998
15.479891777,24.62293,44.96944,6.156662,-0.4024543,-0.2968489,0.7605002,-12.05936,29.33872,9.396398,882.2998
15.499905109,65.37736,37.40986,3.840402,0.01205599,0.5000219,2.640895,-12.05936,29.33872,9.396398,882.303
15.519917488,40.01358,3.037393,2.804181,-0.3412832,-0.1630284,1.014461,-18.3067,29.01648,26.5687,882.303
15.539930344,53.98829,6.994361,1.646051,-0.2932987,-0.1517049,0.9330527,-18.3067,29.01648,26.5687,882.303
15.559943199,44.2614,-16.39309,1.767959,0.08630063,0.05062804,1.343617,1.624832,28.42457,9.080756,882.303
15.579956055,44.13828,10.65603,1.585096,-0.1382837,-0.05329958,1.210675,1.624832,28.42457,9.080756,882.303
15.599969387,57.31267,19.92833,1.036508,-0.1380931,0.0236593,0.9929452,1.624832,28.42457,9.080756,882.303
15.619981766,29.42482,-2.573233,0.4269663,-0.2309434,-0.1016127,1.071826,-1.552317,24.90993,-1.157611,882.3064
15.639995098,21.85262,39.83129,1.097463,0.01859471,-0.08553082,0.8297024,-1.552317,24.90993,-1.157611,882.3064
15.660007477,25.05387,9.652026,-0.1825759,0.03233103,-0.02863401,1.160665,-2.93179,24.2223,-6.956234,882.3046
15.680020332,53.24954,140.6454,7.070976,0.07281597,-0.02403792,0.8115332,-2.93179,24.2223,-6.956234,882.3046
15.700032711,58.54392,62.68721,-0.6092554,-0.0003834495,-0.006034591,1.11679,-2.93179,24.2223,-6.956234,882.3046
15.720046043,32.01044,335.8952,-7.070403,0.1243774,0.2067083,1.270142,-1.856151,23.91585,-11.79893,882.3046
15.740059376,-11.0218,343.632,-6.095135,-0.1067149,-0.01851664,0.9405138,-1.856151,23.91585,-11.79893,882.3028
15.760071754,-29.42901,517.2661,-7.801853,-0.5531834,-0.003453887,-0.120172,-2.161182,21.44234,-19.58311,882.3028
15.780084610,-20.564,549.7486,1.889868,-0.4253459,-0.06512517,0.1091805,-2.161182,21.44234,-19.58311,882.3044
15.800096989,-10.09836,633.6127,7.13193,-0.3482907,-0.01790935,0.2185038,-2.161182,21.44234,-19.58311,882.3044
15.820110321,-9.174925,712.7521,1.585096,-0.5149543,-0.02958366,-0.1912913,-1.004112,21.82655,-29.39909,882.3026
15.840122700,-10.22149,740.0965,-2.072157,-0.6363719,0.009229968,-0.4604292,-1.004112,21.82655,-29.39909,882.3026
15.860136032,-15.02337,760.7672,-3.961737,-0.6017836,0.04004387,-0.8016315,5.128614,23.15958,-38.35951,882.3026
15.880148888,-17.609,749.4869,1.036508,-0.4142978,-0.04083237,-0.9906353,5.128614,23.15958,-38.35951,882.3026
15.900161743,-11.69899,769.2127,-7.436128,-0.3982819,-0.02176976,-1.323778,5.128614,23.15958,-38.35951,882.3026
15.920174599,-1.848977,693.0853,-16.51831,-0.6049782,0.1988893,-1.524996,17.02791,21.1693,-37.01463,882.3026
15.940186977,10.40198,587.7237,-15.42113,-0.5464305,-0.004150925,-1.705737,17.02791,21.1693,-37.01463,882.3008
15.960200310,4.184156,322.725,-7.679945,-1.211022,0.5898334,-1.40715,26.50963,5.254098,-31.2505,882.3008
15.980212688,-100.4722,205.6696,-49.98217,-1.847382,1.096644,-1.361868,26.50963,5.254098,-31.2505,882.3041
16.000226021,-113.5235,-82.59848,30.53835,0.5088668,-0.2712281,-1.153544,26.50963,5.254098,-31.2505,882.3041
16.020238400,-29.79839,153.1659,4.571853,-0.6254542,0.1161079,-1.924796,10.8355,-2.670259,-46.52601,882.3023
16.040251255,-23.82682,91.98058,-28.09961,0.008784736,0.2497928,0.2010202,10.8355,-2.670259,-46.52601,882.3023
16.060264587,-98.44067,136.8065,10.54537,-0.04253021,0.0560475,-0.9094849,7.022729,15.62662,-45.32908,882.3006
16.080276966,-102.6269,144.4252,17.12842,-0.246712,0.2659581,-1.162961,7.022729,15.62662,-45.32908,882.3006
16.100290298,-0.1252248,27.72415,2.438455,-0.4021485,0.377349,-0.8185288,7.022729,15.62662,-45.32908,882.3006
16.120302677,-7.266485,17.21161,6.888113,-0.1968876,0.1206365,-1.033091,5.548242,17.39745,-37.56268,882.3006
16.140315533,-22.534,-35.17392,-3.535058,-0.08795467,0.133433,-0.9911098,5.548242,17.39745,-37.56268,882.3039
16.160328388,-22.41088,-0.5652193,-1.035935,-0.04740775,0.1763931,-1.005126,4.790312,17.08925,-33.46518,882.3039
16.180341244,-5.850545,9.179553,2.133684,-0.1519525,0.2340186,-1.089024,4.790312,17.08925,-33.46518,882.3022
16.200354576,0.7982139,10.36074,0.3660121,-0.09578438,0.1188392,-0.9724129,4.790312,17.08925,-33.46518,882.3022
16.220366955,0.6135262,6.580947,1.280325,-0.1477488,0.2177662,-0.9113605,2.622262,15.64041,-28.57477,882.3022
16.240379810,-1.233351,-32.7525,-1.584523,-0.06297674,0.2315628,-1.105686,2.622262,15.64041,-28.57477,882.3022
16.260392666,16.92761,19.69209,4.998532,-0.05330554,0.1754287,-0.9766477,1.178456,15.27676,-22.80418,882.3022
16.280405521,-1.664289,12.54593,0.6707832,-0.1506913,0.1745597,-0.8716288,1.178456,15.27676,-22.80418,882.3022
16.300417900,3.81478,0.1434914,-0.7311638,-0.02252478,0.2178398,-0.997944,1.178456,15.27676,-22.80418,882.3022
16.320431233,13.35698,26.66108,3.352769,-0.0723387,0.1490795,-0.9817542,0.7718108,15.99632,-17.08363,882.3022
16.340444088,7.200723,-0.3289824,0.7317374,-0.07727633,0.1049385,-0.907252,0.7718108,15.99632,-17.08363,882.3054
16.360456944,1.66009,-31.39413,-4.327463,-0.1072925,0.1758839,-0.7869424,1.087257,19.2165,-12.59386,882.3054
16.380469799,8.555099,-23.4802,-0.9749807,-0.02192004,0.2065423,-1.088378,1.087257,19.2165,-12.59386,882.3054
16.400482178,4.061031,-2.277937,-0.3044843,-0.02968641,0.1117805,-1.065514,1.087257,19.2165,-12.59386,882.3054
16.420495510,2.645091,8.293664,0.3050579,-0.1089099,0.1361599,-1.045259,2.84537,20.58167,-9.713362,882.3072
16.440507889,4.984469,2.742097,0.2441037,-0.05528411,0.2370937,-1.001265,2.84537,20.58167,-9.713362,882.3072
16.460521221,17.66636,13.78617,2.133684,-0.07342091,0.1802634,-0.9153126,4.302019,21.95694,-8.079495,882.3072
16.480534077,5.907908,10.4198,0.9755543,-0.06790674,0.1349875,-0.9997328,4.302019,21.95694,-8.079495,882.3072
16.500546455,9.232287,0.9703206,0.0002867747,-0.05187808,0.1677153,-0.9380581,4.273303,24.09281,-6.456848,882.3054
16.520559788,12.80292,8.588961,2.07273,-0.09186009,0.1115625,-0.9792249,4.273303,24.09281,-6.456848,882.3054
16.540572166,-2.341478,-17.3971,-2.55979,-0.09611849,0.1716549,-0.7265546,4.273303,24.09281,-6.456848,882.3054
16.560585499,-19.94838,-13.26295,-1.462614,-0.07767764,0.1723068,-1.030372,6.048565,24.79247,-5.630533,882.3054
16.580597877,7.877911,-6.116786,0.1221952,-0.09458339,0.08169159,-1.135526,6.048565,24.79247,-5.630533,882.3072
16.600610733,3.076029,-6.353024,-0.3654385,-0.00878201,0.1615382,-1.006099,6.416674,25.15449,-5.999463,882.3072
16.620624065,5.661658,16.14854,0.6098289,-0.1328257,0.1825913,-1.107268,6.416674,25.15449,-5.999463,882.3072
16.640636444,21.36012,0.9703206,0.7317374,-0.04631104,0.1369402,-1.077916,6.416674,25.15449,-5.999463,882.3072
16.660649776,14.40354,16.44384,1.585096,-0.03174322,0.1046076,-0.9737875,6.407781,25.88746,-5.62438,882.3072
16.680662155,13.91104,6.994361,1.524142,-0.09879743,0.1582363,-0.9324803,6.407781,25.88746,-5.62438,882.3072
16.700675487,-24.87338,-13.55825,-1.706431,-0.04577196,0.2185227,-0.7641811,7.446366,26.54043,-5.17796,882.3072
16.720687866,11.5101,8.057427,2.011776,-0.07312839,0.1051671,-1.109662,7.446366,26.54043,-5.17796,882.3072
16.740700722,35.02701,-14.08978,-2.620745,-0.02535299,-0.003648863,-0.9263535,7.446366,26.54043,-5.17796,882.3072
16.760714054,-10.22149,16.85725,1.950822,-0.1481517,0.1754318,-0.9537433,7.818266,26.5355,-5.610042,882.3072
16.780726433,-21.67213,-21.47219,-2.255019,-0.03236384,0.1858239,-0.9204574,7.818266,26.5355,-5.610042,882.3104
16.800739765,0.9213391,3.450808,1.646051,-0.02927018,0.1366242,-1.021826,8.546303,27.25374,-4.793028,882.3104
16.820752144,-15.82368,-12.96766,-1.82834,-0.009064642,0.07391937,-1.117941,8.546303,27.25374,-4.793028,882.3104
16.840764999,6.400409,22.94035,4.084219,-0.03930726,0.1265952,-1.207455,8.546303,27.25374,-4.793028,882.3104
16.860777378,30.22513,2.801157,-0.8530722,-0.01368333,0.162984,-0.9954731,8.92055,26.51119,-4.356294,882.3089
16.880790710,13.04917,2.978334,0.1221952,-0.06703089,0.1428784,-0.9189848,8.92055,26.51119,-4.356294,882.3089
16.900804043,8.431973,16.14854,1.707005,-0.05242797,0.1430277,-0.8682128,9.601054,26.19318,-4.351072,882.3072
16.920816421,1.290715,-5.408076,-0.4873469,-0.09099849,0.11947,-0.886399,9.601054,26.19318,-4.351072,882.3072
16.940829277,-19.88681,1.147498,0.3660121,-0.006966531,0.1335576,-0.8671883,9.601054,26.19318,-4.351072,882.3054
16.960842133,3.506968,6.226592,1.463188,-0.07359645,0.1022277,-1.125148,9.601439,25.45416,-3.109088,882.3054
16.980854988,32.50294,-0.2699232,0.3660121,-0.04830953,0.07193431,-0.9939156,9.601439,25.45416,-3.109088,882.3054
17.000867367,-23.76526,1.856209,-0.6702096,0.03662944,0.1395057,-0.9534854,8.933041,24.73344,-3.552385,882.3054
17.020880699,16.37355,1.02938,1.280325,-0.03762725,0.1681877,-1.003715,8.933041,24.73344,-3.552385,882.3036
17.040893555,3.445405,8.588961,0.4269663,-0.05619368,0.09283972,-0.9546339,8.933041,24.73344,-3.552385,882.3036
17.060906410,-12.37618,9.297671,1.524142,-0.02133924,0.08314111,-1.07732,7.818456,25.11867,-3.125913,882.3069
17.080919266,5.784783,-4.108773,-0.6702096,-0.02083351,0.08652186,-1.0942,7.818456,25.11867,-3.125913,882.3069
17.100931644,18.28199,6.935302,0.7317374,0.02249073,0.1005541,-0.9552998,8.166684,27.62283,-3.551457,882.3004
17.120944977,-2.957104,0.2616099,-0.1216217,-0.08403928,0.1048083,-0.9749093,8.166684,27.62283,-3.551457,882.3004
17.140957832,4.553531,3.391749,0.7926916,-0.08707907,0.1185094,-0.8936418,8.166684,27.62283,-3.551457,882.3019
17.160970688,-7.63586,5.57694,1.707005,0.007851697,0.117922,-0.9880517,8.531328,28.35204,-3.91943,882.3019
17.180983543,-3.942105,0.9703206,-0.7311638,-0.0849348,0.1013092,-1.042094,8.531328,28.35204,-3.91943,882.3001
17.200995922,-7.266485,-6.58926,-0.9749807,-0.01807622,0.1085864,-0.9611526,8.523804,29.39402,-4.352084,882.3001
17.221009255,11.14073,10.18356,1.767959,-0.08485258,0.07839847,-1.095426,8.523804,29.39402,-4.352084,882.3001
17.241021633,-7.38961,-2.691351,0.06124099,-0.03510024,0.1210181,-1.040331,8.523804,29.39402,-4.352084,882.3001
17.261034966,-0.1252248,12.78217,2.926089,-0.01504128,0.1269285,-1.061479,8.149556,30.13657,-4.788818,882.3001
17.281047821,19.20543,4.80917,0.3050579,-0.05085524,0.07349639,-0.9083992,8.149556,30.13657,-4.788818,882.2984
17.301060200,-3.141791,10.65603,1.34128,-0.01026676,0.1532997,-0.9844314,8.88302,30.48902,-4.345931,882.2984
17.321073532,7.38541,-11.0187,-1.340706,0.004511136,0.09014025,-1.036603,8.88302,30.48902,-4.345931,882.2984
17.341085911,6.092596,4.454815,0.7317374,-0.05921933,0.1521537,-0.9184014,8.88302,30.48902,-4.345931,882.2984
17.361099243,2.091028,15.08547,1.34128,-0.06496628,0.0650939,-0.9558563,8.136276,31.54411,-4.785151,882.2984
17.381111622,13.97261,-3.931595,0.3660121,-0.09085162,0.02609798,-0.9436961,8.136276,31.54411,-4.785151,882.2984
17.401124477,-24.81182,7.762131,-1.584523,-0.05618453,0.045258,-0.9279736,8.141705,31.17832,-5.159277,882.3034
17.421137810,16.98917,17.38878,2.438455,-0.1247095,0.04588505,-1.260074,8.141705,31.17832,-5.159277,882.3034
17.441150189,18.65136,-6.825497,-2.437882,0.02941927,0.03835722,-0.9833315,7.392093,32.29299,-5.162973,882.3017
17.461163521,-11.0218,12.54593,0.4269663,-0.1103484,0.1579633,-1.084698,7.392093,32.29299,-5.162973,882.3017
17.481175899,32.68763,13.66805,1.767959,-0.05693714,0.05858162,-1.128841,7.392093,32.29299,-5.162973,882.3017
17.501188755,16.06573,1.560913,-0.4263927,-0.1114519,0.1003404,-0.9358965,7.394384,32.29461,-5.598337,882.3017
17.521201610,28.37825,-2.0417,-0.6092554,-0.1265956,0.007534201,-0.8753551,7.394384,32.29461,-5.598337,882.305
17.541214466,0.7982139,5.517881,-0.1825759,-0.1561781,0.1358261,-0.7497382,6.649604,33.3511,-6.410727,882.305
17.561227798,-19.27119,-11.55023,-0.06066744,-0.07829767,0.1452741,-0.8991912,6.649604,33.3511,-6.410727,882.3032
17.581240177,3.56853,17.38878,3.169906,-0.05850963,0.06646449,-1.044235,6.649604,33.3511,-6.410727,882.3032
17.601253509,-11.94524,-11.55023,-0.9749807,-0.0370596,-0.001312905,-0.9481094,7.754178,33.32841,-5.592344,882.3032
17.621265888,-35.2159,0.2025506,-1.584523,-0.07112058,0.08278676,-1.138345,7.754178,33.32841,-5.592344,882.3032
17.641278744,15.38855,12.66405,1.585096,-0.02382394,0.1016216,-1.055918,8.120322,33.68904,-5.588104,882.3082
17.661292076,16.55824,-7.238912,-1.035935,-0.03841805,0.008746946,-1.047069,8.120322,33.68904,-5.588104,882.3082
17.681304455,-0.3099126,5.517881,-0.1825759,-0.02737734,0.07554477,-0.9247375,8.120322,33.68904,-5.588104,882.3065
17.701317787,15.57323,0.4387875,-0.1216217,-0.06499694,0.0855173,-0.9445757,7.743785,34.42996,-5.589474,882.3065
17.721330166,3.137592,-4.226891,-0.6702096,-0.04222239,0.1111139,-0.7954962,7.743785,34.42996,-5.589474,882.3098
17.741343021,0.5519636,-0.09274548,-0.6092554,-0.03080396,0.01242802,-0.8745435,8.108429,35.15916,-5.957447,882.3098
17.761355400,-18.16306,12.07345,1.646051,0.001932224,0.1038766,-0.9316615,8.108429,35.15916,-5.957447,882.3115
17.781368732,-12.37618,-3.341003,-0.5483012,-0.01611279,0.1265476,-0.9812887,8.108429,35.15916,-5.957447,882.3115
17.801382065,-7.020234,0.6159652,0.06124099,0.0156541,0.1068205,-0.9649307,7.736856,35.16433,-5.587561,882.3115
17.821394443,-22.71869,-2.750411,-0.3044843,-0.06091281,0.05426831,-1.069949,7.736856,35.16433,-5.587561,882.3115
17.841407299,-7.081797,8.588961,0.7926916,-0.01197965,0.05883499,-1.12194,6.997638,35.17744,-5.594127,882.3148
17.861420155,10.27885,-2.277937,-0.4263927,-0.02530414,0.109882,-1.050057,6.997638,35.17744,-5.594127,882.3148
17.881433010,16.37355,2.919275,0.9146,-0.07020181,0.05664811,-1.069474,6.997638,35.17744,-5.594127,882.3148
17.901446342,11.38698,1.974327,0.8536458,0.01280301,0.07952596,-1.014443,6.985532,36.21618,-5.156052,882.3148
17.921458721,8.001036,-0.8605154,-0.2435301,0.02742394,0.06800425,-0.970531,6.985532,36.21618,-5.156052,882.3148
17.941471577,11.26385,1.442794,0.1221952,0.01707065,0.119022,-0.9314906,6.986322,36.58638,-5.963629,882.3148
17.961484432,-0.9255384,-6.707379,-0.7311638,0.003401878,0.06893048,-0.9092401,6.986322,36.58638,-5.963629,882.3195
17.981497288,-4.003668,22.2907,1.767959,-0.04689963,0.06084349,-0.9379621,6.986322,36.58638,-5.963629,882.3195
18.001509666,-20.0715,-18.87358,-2.194065,0.001454981,0.09512298,-0.9351172,7.354758,36.94864,-6.394753,882.3178
18.021522999,5.415408,11.60098,1.097463,-0.07963868,0.0519194,-0.9381344,7.354758,36.94864,-6.394753,882.3178
18.041535854,-29.98308,-5.05372,0.0002867747,-0.04728225,0.08935651,-1.048843,8.460121,37.29615,-6.383947,882.321
18.061548710,-15.39275,5.754118,-0.1825759,-0.02471075,0.1170437,-1.144203,8.460121,37.29615,-6.383947,882.321
18.081561565,18.65136,12.13251,0.9146,-0.04703084,0.05605427,-1.238499,8.460121,37.29615,-6.383947,882.321
18.101573944,18.28199,-3.222884,0.6707832,0.04910991,0.1115974,-1.155621,9.122169,38.69004,-5.938897,882.321
18.121587276,53.92672,0.1434914,0.8536458,-0.06302471,0.0437618,-0.9289728,9.122169,38.69004,-5.938897,882.3193
18.141600132,-9.605864,-12.49518,-1.767385,-0.03441582,0.1611702,-0.8201801,10.23558,38.67362,-6.799776,882.3193
18.161612988,9.663225,2.151505,0.4269663,-0.04883805,0.09236568,-0.9749066,10.23558,38.67362,-6.799776,882.3193
18.181625843,21.23699,10.1245,1.097463,-0.0004785192,0.07275796,-0.9372407,10.23558,38.67362,-6.799776,882.3193
18.201638222,-2.526166,-10.25093,-2.315974,-0.02072304,0.09230614,-0.7767459,10.59963,39.71044,-7.602316,882.3176
18.221651554,-12.80712,23.05847,1.889868,-0.01378633,0.1097083,-0.8693387,10.59963,39.71044,-7.602316,882.3176
18.241663933,-31.39902,-16.39309,-0.9749807,0.02157531,0.1650369,-1.054773,11.27724,39.69841,-7.596297,882.3157
18.261677265,3.937906,16.91631,1.097463,-0.0558538,-0.01483495,-1.165679,11.27724,39.69841,-7.596297,882.3157
18.281690121,-7.943674,-12.49518,-1.645477,-0.03887723,0.05094115,-1.102762,11.27724,39.69841,-7.596297,882.3157
18.301702499,14.52667,16.79819,0.7926916,0.06914138,0.05637722,-1.109156,11.63646,40.79341,-7.590144,882.3157
18.321715832,22.96074,-7.297971,0.3660121,0.02163017,0.09604339,-1.051479,11.63646,40.79341,-7.590144,882.3157
18.341728211,17.17386,-9.483162,-0.4263927,0.06551793,0.06678869,-0.9448217,10.58694,40.81036,-7.164082,882.3157
18.361741543,14.34198,2.387742,-0.4263927,-0.04494894,0.06522793,-0.9374367,10.58694,40.81036,-7.164082,882.3173
18.381754398,8.986037,3.096453,1.097463,0.06486759,0.09804162,-0.8300667,10.95538,41.17262,-7.595206,882.3173
18.401766777,-3.942105,8.057427,0.8536458,0.06200088,0.06251326,-0.8603226,10.95538,41.17262,-7.595206,882.3156
18.421780110,-15.26962,4.750111,-0.4873469,-0.001486953,0.05191579,-0.8958686,10.95538,41.17262,-7.595206,882.3156
18.441792488,-17.05494,9.829205,-0.3044843,0.003552938,0.01293082,-0.9971471,8.434352,40.48143,-7.18419,882.3156
18.461805821,-11.20649,-0.2108639,-1.096889,-0.04132935,0.03686049,-1.085494,8.434352,40.48143,-7.18419,882.3156
18.481818199,-9.174925,8.943316,0.6098289,0.01785122,0.0361625,-1.119623,7.32435,40.86991,-7.628447,882.3156
18.501831531,15.38855,-0.9195747,-0.4873469,-0.03880538,0.01105287,-1.134977,7.32435,40.86991,-7.628447,882.3156
18.521844387,13.35698,7.230598,1.097463,0.001592672,0.04739105,-1.017641,7.32435,40.86991,-7.628447,882.3173
18.541856766,13.04917,-6.234905,-0.3044843,-0.02295018,0.1046606,-0.9698958,6.277123,40.88848,-7.637749,882.3173
18.559368133,8.370411,-1.27393,-0.9140264,0.09322167,0.07440264,-0.8180994,6.277123,40.88848,-7.637749,882.3189
18.579380989,15.6348,7.88025,1.280325,0.02314417,0.02609529,-1.041426,6.277123,40.88848,-7.637749,882.3189
18.599394321,-3.388042,-13.97166,-1.462614,0.09766223,0.05496098,-0.8395041,6.281378,40.89151,-8.446282,882.3206
18.619406700,-7.266485,12.84122,-0.4263927,0.04448086,0.09194046,-0.9456428,6.281378,40.89151,-8.446282,882.3206
18.639420032,-8.990237,2.978334,0.6098289,0.0372294,0.03015918,-0.9688825,6.282551,40.5227,-8.011875,882.3189
18.659432411,-20.81025,3.568926,-0.6092554,0.0865153,0.08973975,-0.9450516,6.282551,40.5227,-8.011875,882.3189
18.679445267,-12.86868,8.411783,0.1221952,0.01533323,0.07021526,-1.081182,6.600375,39.47688,-8.011849,882.3189
18.699458599,-1.356477,4.336696,0.6098289,0.04220062,0.0762027,-1.073322,6.600375,39.47688,-8.011849,882.3189
18.719470978,-4.06523,2.742097,-0.5483012,0.02814125,0.04541058,-1.148502,6.600375,39.47688,-8.011849,882.3171
18.739484310,19.69793,-3.518181,0.4269663,0.1120316,0.05432404,-1.005174,8.08495,38.34608,-7.193053,882.3171
18.759496689,9.971038,0.4978468,-1.157843,0.05878557,0.03312888,-1.014206,8.08495,38.34608,-7.193053,882.3171
18.779509544,7.63166,1.265617,-0.1825759,-0.02691208,0.05664356,-0.8910747,9.145457,36.91996,-7.187418,882.3186
18.799522877,1.167589,2.387742,-0.6702096,0.05118491,0.1076729,-0.8392073,9.145457,36.91996,-7.187418,882.3186
18.819535255,11.63323,2.328683,-0.1825759,-0.009547158,0.02245505,-1.086,9.145457,36.91996,-7.187418,882.3186
18.839548588,-5.419607,4.218578,0.8536458,0.1002357,0.05870598,-0.952514,10.63867,35.11761,-6.80574,882.3186
18.859560966,-11.5143,9.652026,-0.1825759,0.00176345,0.005445499,-1.132486,10.63867,35.11761,-6.80574,882.3086
18.879574299,13.11073,-0.8605154,0.9755543,0.08989123,0.05728825,-0.8829885,12.07035,32.57712,-5.12043,882.3086
18.899586678,-2.464603,-1.155811,-1.157843,0.06120922,0.07102831,-1.024513,12.07035,32.57712,-5.12043,882.3118
18.919599533,1.475402,10.18356,0.2441037,0.01931358,0.04928132,-1.12579,12.07035,32.57712,-5.12043,882.3118
18.939612865,11.44854,3.568926,1.036508,0.01327904,0.07517472,-1.000467,12.83207,30.42372,-5.554809,882.3136
18.959625244,22.59137,-1.510167,0.9755543,-0.0121208,0.02016643,-0.9739448,12.83207,30.42372,-5.554809,882.3136
18.979638577,-4.865544,2.269624,-0.792118,0.01375713,0.03344383,-0.9611961,14.61257,32.17442,-7.586747,882.3118
18.999650955,-1.725852,-4.34501,-0.4873469,0.06901643,0.05895032,-1.004782,14.61257,32.17442,-7.586747,882.3118
19.019663811,13.17229,18.68809,2.133684,0.006873529,0.07908399,-0.9593894,14.61257,32.17442,-7.586747,882.3118
19.039677143,-10.22149,2.210564,-2.498836,0.009772968,0.03108213,-0.8964903,16.38927,34.29206,-9.555534,882.3118
19.059689522,1.536965,-2.632292,-0.7311638,0.05684409,0.06028589,-1.045389,16.38927,34.29206,-9.555534,882.3068
19.079702854,1.90634,7.289658,-0.1216217,0.03775694,0.04516449,-1.01272,17.86294,35.67941,-11.1558,882.3068
19.099715233,-3.880543,6.580947,-0.3654385,0.0617235,0.04139061,-1.024757,17.86294,35.67941,-11.1558,882.3101
19.119728088,6.954472,5.931295,0.3660121,0.01137638,0.001804704,-0.9919014,17.86294,35.67941,-11.1558,882.3101
19.139741421,-5.72742,0.2025506,-0.9749807,0.04311762,0.04618276,-1.000135,20.0275,35.6472,-12.75372,882.3101
19.159753799,12.55667,-4.226891,-1.584523,0.05482729,0.005980583,-0.9535703,20.0275,35.6472,-12.75372,882.3101
19.179767132,-7.204922,1.088439,-0.7311638,0.05874582,0.03705867,-0.9832541,22.87623,35.60762,-15.58951,882.3134
19.199779511,2.214153,11.7191,1.646051,-0.02085007,0.04042644,-1.046753,22.87623,35.60762,-15.58951,882.3134
19.219792366,-0.00209967,7.348717,-0.2435301,0.04309816,0.005430339,-0.9540932,22.87623,35.60762,-15.58951,882.3115
19.239805698,2.152591,4.572933,-1.40166,0.1012619,0.05962528,-0.9945342,25.42559,34.90195,-18.86516,882.3115
19.259818077,1.352277,8.057427,0.3050579,0.06415743,0.02248405,-1.002683,25.42559,34.90195,-18.86516,882.3098
19.279831410,-0.3099126,7.88025,0.5488747,0.06923422,0.005299781,-1.151126,30.89742,32.62405,-24.54467,882.3098
19.299843788,4.738219,12.0144,0.1831494,0.0925126,0.03913353,-1.020818,30.89742,32.62405,-24.54467,882.3098
19.319856644,1.044464,13.72711,-0.3654385,0.02402003,0.03592774,-0.9621109,30.89742,32.62405,-24.54467,882.3098
19.339869499,-1.171789,13.66805,-0.6702096,0.01478339,-0.01854762,-0.9650053,37.05938,30.40461,-32.70581,882.3114
19.359882355,-26.72026,18.39279,-0.3044843,0.2004846,0.002392684,-0.9570271,37.05938,30.40461,-32.70581,882.3114
19.379895687,8.986037,41.83931,-0.06066744,0.08046782,0.0500284,-1.17681,42.20127,27.1757,-44.17528,882.3097
19.399908066,0.6135262,54.95045,1.524142,0.3160217,0.01696115,-0.7135529,42.20127,27.1757,-44.17528,882.3097
19.419920921,44.13828,167.6945,-0.8530722,0.05196134,0.02618609,-1.44039,42.20127,27.1757,-44.17528,882.3097
19.439933777,56.14298,208.5044,-9.264753,0.4452424,0.1092727,-0.5249518,42.27627,25.44231,-55.25059,882.3097
19.459946632,-43.64997,368.2006,-8.533303,0.3666156,-0.2210921,-1.586426,42.27627,25.44231,-55.25059,882.3061
19.479959965,-27.45901,398.0846,-3.169333,0.7640147,0.0633097,-0.5779999,44.80112,30.75675,-64.60571,882.3061
19.499972343,-25.42745,474.7434,1.463188,0.8539702,0.02727444,-0.9877086,44.80112,30.75675,-64.60571,882.3044
19.519985676,-16.80869,516.6755,5.181395,1.063729,0.02646222,-0.6406922,44.80112,30.75675,-64.60571,882.3044
19.539998054,-9.975239,613.6507,5.851891,1.092048,0.02316363,-1.029058,54.0997,38.86158,-66.98881,882.3076
19.560010910,-11.39118,686.5889,0.9755543,1.301929,0.06395402,-0.8164853,54.0997,38.86158,-66.98881,882.3076
19.580024242,-12.62243,736.1395,-3.230287,1.47486,0.05965719,-0.7367705,56.53531,40.53947,-53.0301,882.3059
19.600036621,-17.609,761.9484,-2.681699,1.507915,0.05810664,-0.5820875,56.53531,40.53947,-53.0301,882.3059
19.620049953,-15.639,761.9484,-6.582769,1.305872,0.02470639,-0.4003544,46.00995,38.53132,-39.19705,882.3059
19.640062332,-12.74555,747.6561,-9.508571,1.163375,0.06114182,-0.1980563,46.00995,38.53132,-39.19705,882.3059
19.660075188,-5.542732,704.8972,-8.959983,0.9081669,0.04237263,-0.1202312,46.00995,38.53132,-39.19705,882.3041
19.680088520,-1.294914,631.6047,-16.33544,0.2762961,0.3221019,0.8435152,35.61819,37.62049,-40.90946,882.3041
19.700100899,-159.9417,378.1225,-6.156089,0.160522,-0.03313017,0.2170084,35.61819,37.62049,-40.90946,882.3023
19.720114231,-75.84721,177.7936,4.267082,0.05427178,0.1320444,0.2586385,26.28715,37.80959,-47.14993,882.3023
19.740126610,-35.89308,137.1609,3.291814,0.09016012,-0.09218145,0.6588402,26.28715,37.80959,-47.14993,882.3006
19.760139465,-0.7408507,81.88146,0.7926916,-0.06043747,-0.03127903,0.6656555,26.28715,37.80959,-47.14993,882.3006
19.780152798,-6.219921,61.21073,1.280325,0.1191113,-0.01237348,1.334981,6.530852,38.54267,-51.36728,882.3039
19.800165176,-43.28059,1.856209,-0.06066744,-0.005835981,-0.132669,1.27322,6.530852,38.54267,-51.36728,882.3039
19.820178509,-60.14874,-23.65738,-0.1825759,0.08151485,-0.09280426,0.9452955,-18.36431,36.03805,-33.18561,882.3022
19.840190887,-29.92151,-21.17689,0.5488747,-0.03685439,0.0255871,0.9357748,-18.36431,36.03805,-33.18561,882.3022
19.860203743,-64.45813,-10.36905,3.169906,-0.04159866,-0.12897,0.9257846,-18.36431,36.03805,-33.18561,882.3039
19.880217075,-53.68467,-17.45616,2.804181,-0.1565693,-0.1386841,1.028262,-29.24957,27.94423,-10.35337,882.3039
19.900229454,-61.68781,-19.75947,2.560364,-0.2079366,-0.2685132,1.162787,-29.24957,27.94423,-10.35337,882.2956
19.920242786,-51.6531,-2.336996,1.280325,-0.1248672,-0.2904577,0.7797458,-29.9532,23.62529,2.255009,882.2956
19.940255165,-45.43528,-25.66539,1.036508,0.07491367,-0.1658479,1.208451,-29.9532,23.62529,2.255009,882.2874
19.960268021,-51.89935,-22.59431,3.291814,-0.001334196,-0.1454747,0.7793853,-29.9532,23.62529,2.255009,882.2874
19.980281353,-48.75966,-2.750411,4.510899,0.110082,-0.3302764,0.9308538,-28.19302,22.46603,9.233834,882.2772
20.000293732,-45.92778,-20.52724,1.889868,-0.03060466,-0.2091994,1.194247,-28.19302,22.46603,9.233834,882.2772
20.020307064,-50.48341,-18.46017,2.316547,-0.05072881,-0.3355058,0.942405,-27.16739,22.43213,13.348,882.2772
20.040319443,-74.80064,-10.30999,1.646051,-0.19843,-0.108532,0.8597789,-27.16739,22.43213,13.348,882.2772
20.060332298,-25.36588,-37.94971,-0.5483012,0.07702184,-0.3986201,0.8311501,-27.16739,22.43213,13.348,882.2805
20.080345631,-74.12345,-15.09379,0.2441037,0.09309031,-0.2649718,0.7859263,-24.9617,22.75393,14.98572,882.2805
20.100358009,-76.89377,-8.83351,2.682272,-0.06568794,-0.3926067,0.8201424,-24.9617,22.75393,14.98572,882.2805
20.120371342,-53.74623,-20.99971,2.682272,0.1422397,-0.331926,1.017414,-23.17834,22.35041,16.24453,882.2805
20.140383720,-72.52283,-24.7795,2.011776,0.21423,-0.355489,0.9130828,-23.17834,22.35041,16.24453,882.2787
20.160397053,-82.12659,-22.59431,2.560364,0.1822408,-0.4821869,0.7761824,-23.17834,22.35041,16.24453,882.2787
20.180409908,-107.3672,11.4238,3.108952,0.1413038,-0.4363449,1.057611,-21.39844,22.31407,17.5043,882.282
20.200422287,-107.7982,18.33373,3.474677,-0.01827703,-0.2088631,0.6860517,-21.39844,22.31407,17.5043,882.282
20.220435619,14.77292,-20.291,11.94731,0.04655898,-0.7297414,0.7911165,-18.48203,19.81343,17.8968,882.2803
20.240447998,-31.27589,33.39383,33.4032,0.3136618,-0.6925671,0.9753274,-18.48203,19.81343,17.8968,882.2803
20.260461330,-120.5416,132.1999,18.53037,-0.1584547,-0.2096472,1.020422,-18.48203,19.81343,17.8968,882.2836
20.280474186,-80.40284,111.4111,5.54712,-0.08206671,-1.044585,0.2576635,-15.93362,17.56691,17.54033,882.2836
20.300486565,20.92918,26.12955,12.31304,-0.1773149,-0.7703355,0.4239071,-15.93362,17.56691,17.54033,882.2853
20.320499897,-9.852114,3.746104,3.352769,0.09571975,-0.1358775,1.365774,-15.57824,14.39149,14.23845,882.2853
20.340512276,22.40668,28.96439,2.865135,0.04628793,-0.5046759,0.858683,-15.57824,14.39149,14.23845,882.2886
20.360525608,23.45325,18.51091,3.352769,0.02690546,-0.5253655,0.7309114,-15.57824,14.39149,14.23845,882.2886
20.380538464,14.95761,2.919275,1.097463,-0.05769356,-0.5039287,0.7525749,-18.39517,12.66703,14.20865,882.2903
20.400550842,-0.6792881,-3.57724,1.767959,-0.05373389,-0.5034801,0.7100764,-18.39517,12.66703,14.20865,882.2903
20.420564175,13.17229,-7.120793,-1.889294,-0.01379711,-0.4317411,0.7784265,-21.69859,15.90118,15.80501,882.2903
20.440576553,-3.080229,-14.73943,-0.7311638,0.04905457,-0.6102874,1.076184,-21.69859,15.90118,15.80501,882.2903
20.460589886,1.167589,-19.10982,-0.1825759,0.05056451,-0.4583944,0.9291307,-21.69859,15.90118,15.80501,882.2936
20.480602741,-10.89868,-8.656333,0.2441037,0.01502379,-0.4563227,0.809712,-22.48902,20.19044,17.86203,882.2936
20.500615120,-16.1315,-19.46417,-0.5483012,0.04353808,-0.5743201,0.7537455,-22.48902,20.19044,17.86203,882.2936
20.520628452,-26.6587,-20.76347,-3.230287,0.1701015,-0.4550743,1.104405,-23.213,24.17402,19.54564,882.2936
20.540641785,-15.51587,11.4238,0.1221952,0.06307159,-0.6353573,0.8122386,-23.213,24.17402,19.54564,882.2936
20.560654163,-12.19149,21.99541,-1.889294,0.2389877,-0.6062062,0.8226711,-24.38562,29.13861,22.78284,882.2969
20.580667019,-10.46774,34.4569,5.912846,-0.005300689,-0.5809388,0.7269726,-24.38562,29.13861,22.78284,882.2969
20.600679397,18.77449,40.18565,-2.255019,0.1307526,-0.8290336,0.3393189,-24.38562,29.13861,22.78284,882.2903
20.620692730,13.04917,31.79924,3.352769,0.04450164,-0.5587651,0.7543603,-29.53134,35.32194,29.71974,882.2903
20.640706062,8.555099,24.53495,5.059486,0.04642196,-0.4742511,0.7226973,-29.53134,35.32194,29.71974,882.2919
20.660718441,21.11387,41.66212,2.987043,0.05525094,-0.303196,1.403399,-30.01636,46.72231,42.86993,882.2919
20.680731296,5.107594,7.703072,0.5488747,-0.1495846,-0.603447,0.8282896,-30.01636,46.72231,42.86993,882.2952
20.700744152,26.59294,15.43983,1.828913,-0.04707232,-0.4357583,0.8150099,-30.01636,46.72231,42.86993,882.2952
20.720757008,1.783215,-4.817483,-0.3044843,-0.1353434,-0.6141278,0.7789662,-9.927629,54.95094,38.15779,882.2952
20.740770340,23.45325,-18.22393,-0.1825759,0.01286501,-0.4308534,0.9645128,-9.927629,54.95094,38.15779,882.2952
20.760782719,1.290715,-12.73142,-1.645477,-0.07192608,-0.5481103,0.8342955,-1.143136,45.17776,25.08609,882.2952
20.780795574,7.077597,-14.97567,-1.82834,0.0536738,-0.5580958,0.8510162,-1.143136,45.17776,25.08609,882.2952
20.800808430,2.214153,-14.2079,-0.4263927,0.04331988,-0.4944565,0.8814652,-1.143136,45.17776,25.08609,882.2969
20.820821285,8.247286,-3.045707,-0.6092554,0.09959866,-0.5097688,0.8317468,-4.982415,37.06561,20.11631,882.2969
20.840834618,-15.39275,-7.297971,-0.6702096,0.01288226,-0.6450316,0.6892967,-4.982415,37.06561,20.11631,882.3001
20.860846996,-13.60743,4.454815,-0.792118,0.06672722,-0.4190274,0.8720148,-9.617172,32.86949,18.81966,882.3001
20.880859852,-31.64527,-5.349017,-1.889294,0.1344961,-0.7937792,0.8710474,-9.617172,32.86949,18.81966,882.2984
20.900872707,5.661658,18.15656,1.828913,0.08054987,-0.4433848,0.7728162,-9.617172,32.86949,18.81966,882.2984
20.920885563,7.262285,27.0745,3.413723,0.08578729,-0.4490184,0.8950132,-13.24514,31.09038,20.83503,882.2984
20.940898895,6.708222,43.7292,5.9738,-0.1628597,-0.7748677,0.6036314,-13.24514,31.09038,20.83503,882.2984
20.960911274,27.51637,37.88234,5.912846,-0.1264958,-0.4893859,0.6462034,-17.22539,32.6121,25.34406,882.3017
20.980924129,36.99701,25.71614,2.255593,-0.06737858,-0.4997183,0.6728668,-17.22539,32.6121,25.34406,882.3017
21.000937462,48.50922,30.02746,2.194638,-0.1106156,-0.5462872,0.8989316,-17.22539,32.6121,25.34406,882.3017
21.020949841,48.01672,15.55795,1.34128,0.2036062,-0.4100647,0.8430305,-16.91938,36.13363,31.07852,882.3017
21.040963173,57.80517,12.42781,1.828913,-0.1021409,-0.4754765,1.122259,-16.91938,36.13363,31.07852,882.3067
21.060975552,37.92045,-17.69239,-0.1825759,0.2112193,-0.4243429,1.029417,-5.003223,37.42048,23.41359,882.3067
21.080988884,60.63705,4.277637,4.328036,-0.05793741,-0.3434557,0.8437623,-5.003223,37.42048,23.41359,882.3067
21.101001740,54.7886,-6.353024,1.219371,0.1070471,-0.3321143,1.019239,-5.003223,37.42048,23.41359,882.3067
21.121014118,50.54078,-5.644313,1.219371,0.002017419,-0.2710981,0.9295697,-2.762382,32.76026,15.64627,882.3067
21.141027451,25.11543,-16.45215,0.3050579,0.126664,-0.3534446,0.978057,-2.762382,32.76026,15.64627,882.3067
21.161039829,50.54078,-7.179852,1.646051,0.02204914,-0.520089,0.7005044,-6.727758,30.33289,12.7432,882.31
21.181053162,68.57861,-11.0187,2.438455,0.0757716,-0.3055918,0.9956924,-6.727758,30.33289,12.7432,882.31
21.201066017,45.00015,-12.9086,3.291814,0.08423518,-0.4047529,0.9359567,-6.727758,30.33289,12.7432,882.3082
21.221078396,50.91016,-1.27393,1.097463,-0.2135556,-0.1756323,0.8862321,-9.908346,28.92725,11.03166,882.3082
21.241091728,87.53989,-19.75947,-1.218798,-0.1405596,-0.3361109,0.8571019,-9.908346,28.92725,11.03166,882.3095
21.261104107,36.38139,12.54593,6.888113,0.02283766,-0.08717816,1.379002,-11.69826,29.32612,11.01675,882.3095
21.281117439,14.34198,10.06544,0.4879205,-0.1086124,-0.6478737,0.5159532,-11.69826,29.32612,11.01675,882.3095
21.301130295,19.45168,-34.16992,-0.9140264,-0.01036669,-0.2297108,1.040025,-11.69826,29.32612,11.01675,882.3095
21.321142674,91.04896,6.167532,1.889868,-0.05121023,0.003878935,1.106091,-13.18095,29.34933,11.81215,882.3095
21.341156006,-4.742419,-30.92166,-2.437882,-0.1363783,-0.05031836,1.250804,-13.18095,29.34933,11.81215,882.3095
21.361168861,16.55824,-7.888563,0.2441037,-0.03053553,-0.3239273,0.8029417,-12.44323,29.70479,11.4465,882.3077
21.381181717,40.50608,-2.632292,1.34128,-0.09623934,-0.1172483,0.8319933,-12.44323,29.70479,11.4465,882.3077
21.401194573,37.30483,-11.90459,0.6707832,0.09552047,-0.09592862,1.090729,-12.44323,29.70479,11.4465,882.311
21.421206951,20.62137,-15.03473,-0.792118,-0.05770047,-0.1407392,0.9111452,-11.68746,29.33379,8.964318,882.311
21.441220284,20.62137,-6.293964,0.2441037,-0.07607631,-0.2896082,0.8514004,-11.68746,29.33379,8.964318,882.3092
21.461233616,10.89448,-5.11278,-0.8530722,-0.05383696,0.09096939,1.198596,-11.67469,29.34284,6.538717,882.3092
21.481245994,27.33169,-30.80354,-4.632234,0.0585527,-0.2390509,1.043054,-11.67469,29.34284,6.538717,882.3092
21.501258850,33.11857,-8.301978,0.4879205,0.110232,-0.1347396,1.077408,-11.37629,30.80914,5.736746,882.3092
21.521271229,-34.53871,-11.07776,3.23086,0.09335294,-0.1574274,0.9003494,-11.37629,30.80914,5.736746,882.3125
21.541284561,-30.72183,-2.691351,0.06124099,-0.02069082,-0.119506,1.011437,-11.37629,30.80914,5.736746,882.3125
21.561297893,-28.75183,-11.314,1.219371,-0.3797663,0.09922322,0.715054,-11.69144,31.11757,6.543342,882.3108
21.581310272,-11.26805,-25.01574,1.158417,0.0277203,-0.06441957,0.9511663,-11.69144,31.11757,6.543342,882.3108
21.601323128,-32.44558,21.81823,4.084219,0.08336399,-0.2067433,1.117795,-11.68588,30.07419,7.349164,882.3125
21.621336460,-128.791,15.43983,8.777695,-0.0861505,0.05056965,1.274979,-11.68588,30.07419,7.349164,882.3125
21.641348839,32.01044,57.07658,-0.4873469,-0.3233624,-0.1349824,1.548588,-11.68588,30.07419,7.349164,882.3108
21.661362171,58.60548,39.83129,4.754715,0.03834379,-0.1909046,1.152575,-14.97394,29.37638,13.04018,882.3108
